Code	Codelist Code	Codelist Extensible (Yes/No)	Codelist Name	CDISC Submission Value	CDISC Synonym(s)	CDISC Definition	NCI Preferred Term
C78418		Yes	Concomitant Medication Dose Form	CMDOSFRM	Concomitant Medication Dose Form	A terminology subset of the CDISC SDTM Pharmaceutical Dosage Form codelist created for CDASH Concomitant Medication Dose Form codelist. (NCI)	CDISC CDASH Concomitant Medication Dose Form Terminology
C42887	C78418		Concomitant Medication Dose Form	AEROSOL	aer	A product that is packaged under pressure and contains therapeutically active ingredients that are released upon activation of an appropriate valve system; it is intended for topical application to the skin as well as local application into the nose (nasal aerosols), mouth (lingual aerosols), or lungs (inhalation aerosols).	Aerosol Dosage Form
C25158	C78418		Concomitant Medication Dose Form	CAPSULE	cap	A solid pharmaceutical dosage form that contains medicinal agent within either a hard or soft soluble container or shell, usually used for the oral administration of medicine. The shells are made of a suitable form of gelatin or other substance. (NCI)	Capsule Dosage Form
C28944	C78418		Concomitant Medication Dose Form	CREAM		A semisolid emulsion of either the oil-in-water or the water-in-oil type, ordinarily intended for topical use. (NCI)	Cream Dosage Form
C42933	C78418		Concomitant Medication Dose Form	GAS		Any elastic aeriform fluid in which the molecules are separated from one another and have free paths. (NCI)	Gas Dosage Form
C42934	C78418		Concomitant Medication Dose Form	GEL		A semisolid (1) dosage form that contains a gelling agent to provide stiffness to a solution or a colloidal dispersion (2). A gel may contain suspended particles. Note 1: A semisolid is not pourable; it does not flow or conform to its container at room temperature. It does not flow at low shear stress and generally exhibits plastic flow behavior. Note 2: A colloidal dispersion is a system in which particles of colloidal dimension (i.e., typically between 1 nm and 1 micrometer) are distributed uniformly throughout a liquid.	Gel Dosage Form
C42966	C78418		Concomitant Medication Dose Form	OINTMENT	oint	A suspension or emulsion, semisolid (1) dosage form, usually containing less than 20 percent water and volatiles (2) and greater than 50 percent hydrocarbons, waxes, or polyols as the vehicle. This dosage form is generally for external application to the skin or mucous membranes. Note 1: A semisolid is not pourable; it does not flow or conform to its container at room temperature. It does not flow at low shear stress and generally exhibits plastic flow behavior. Note 2: Percent water and volatiles are measured by a loss on drying test in which the sample is heated at 105 degrees C until constant weight is achieved.	Ointment Dosage Form
C42968	C78418		Concomitant Medication Dose Form	PATCH		A drug delivery system that often contains an adhesive backing that is usually applied to an external site on the body. Its ingredients either passively diffuse from, or are actively transported from, some portion of the patch. Depending upon the patch, the ingredients are either delivered to the outer surface of the body or into the body. A patch is sometimes synonymous with the terms Extended Release Film and System.	Patch Dosage Form
C42972	C78418		Concomitant Medication Dose Form	POWDER		An intimate mixture of dry, finely divided drugs and/or chemicals that may be intended for internal or external use. (NCI)	Powder Dosage Form
C42989	C78418		Concomitant Medication Dose Form	SPRAY		A liquid minutely divided as by a jet of air or steam. (NCI)	Spray Dosage Form
C42993	C78418		Concomitant Medication Dose Form	SUPPOSITORY	supp	A solid body of various weights and shapes, adapted for introduction into the rectal, vaginal, or urethral orifice of the human body; they usually melt, soften, or dissolve at body temperature.	Suppository Dosage Form
C42994	C78418		Concomitant Medication Dose Form	SUSPENSION	Ready to Use Suspension; susp	A dosage form that contains solid particles dispersed in a liquid vehicle.	Suspension Dosage Form
C42998	C78418		Concomitant Medication Dose Form	TABLET	tab	A solid dosage form containing medicinal substances with or without suitable diluents. (NCI)	Tablet Dosage Form
C78417		Yes	Concomitant Medication Dose Units	CMDOSU	Concomitant Medication Dose Units	A terminology subset of the CDISC SDTM Unit codelist created for CDASH Concomitant Medication Dose Units codelist. (NCI)	CDISC CDASH Concomitant Medication Dose Units Terminology
C48480	C78417		Concomitant Medication Dose Units	CAPSULE	cap; Capsule Dosing Unit	A dosing measurement based on the capsule unit.(NCI)	Capsule Dosing Unit
C48155	C78417		Concomitant Medication Dose Units	g	Gram	A unit of mass equal to one thousandth (1E-3) of a kilogram, the kilogram being the base unit of mass in the International System of Units (SI).	Gram
C48579	C78417		Concomitant Medication Dose Units	IU	IE; International Unit	The unitage assigned by the WHO (World Health Organization) to International Biological Standards - substances, classed as biological according to the criteria provided by WHO Expert Committee on Biological Standardization, to enable the results of biological and immunological assay procedures to be expressed in the same way throughout the world. The definition of an international unit is generally arbitrary and technical, and has to be officially approved by the International Conference for Unification of Formulae.(NCI)	International Unit
C28253	C78417		Concomitant Medication Dose Units	mg	Milligram	A unit of mass equal to one thousandth (1E-3) of a gram.	Milligram
C28254	C78417		Concomitant Medication Dose Units	mL	cc; cm3; Cubic Centimeter; Milliliter	A unit of volume equal to one thousandth (1E-3) of a liter.	Milliliter
C65060	C78417		Concomitant Medication Dose Units	PUFF	Puff Dosing Unit	A means of delivering a defined dose of a therapeutic aerolized solution into either the upper or lower respiratory tract. Metered-dose inhalers or spray pumps are devices that provide a puff dose for delivery into either the oral or the nasal cavity.(NCI)	Puff Dosing Unit
C48542	C78417		Concomitant Medication Dose Units	TABLET	tab; Tablet Dosing Unit	A dosing measurement based on the tablet unit.(NCI)	Tablet Dosing Unit
C48152	C78417		Concomitant Medication Dose Units	ug	mcg; Microgram	A unit of mass equal to one millionth (1E-6) of a gram.	Microgram
C78419		Yes	Concomitant Medication Dosing Frequency per Interval	CMDOSFRQ	Concomitant Medication Dosing Frequency per Interval	A terminology subset of the CDISC SDTM Frequency codelist created for CDASH Concomitant Medication Dosing Frequency per Interval codelist. (NCI)	CDISC CDASH Concomitant Medication Dosing Frequency per Interval Terminology
C64496	C78419		Concomitant Medication Dosing Frequency per Interval	BID	BD; Twice per day	Two times per day, at unspecified times. (NCI)	Twice Daily
C64499	C78419		Concomitant Medication Dosing Frequency per Interval	PRN	As needed	As needed. (NCI)	As Needed
C25473	C78419		Concomitant Medication Dosing Frequency per Interval	QD	/day; Daily; Per Day	A rate of occurrences within a period of time equal to one day.	Daily
C64530	C78419		Concomitant Medication Dosing Frequency per Interval	QID	4 times per day	Four times per day. (NCI)	Four Times Daily
C64498	C78419		Concomitant Medication Dosing Frequency per Interval	QM	Every Month; Per Month	Every month. (NCI)	Monthly
C64525	C78419		Concomitant Medication Dosing Frequency per Interval	QOD	Every other day; Every Second Day; Every Two Days; Q2D	Every other day. (NCI)	Every Other Day
C64527	C78419		Concomitant Medication Dosing Frequency per Interval	TID	3 times per day	Three times per day. (NCI)	Three Times Daily
C17998	C78419		Concomitant Medication Dosing Frequency per Interval	UNKNOWN	U; UNK; Unknown	Not known, not observed, not recorded, or refused. (NCI)	Unknown
C78420		Yes	Concomitant Medication Route of Administration	CMROUTE	Concomitant Medication Route of Administration	A terminology subset of the CDISC SDTM Route codelist created for CDASH Concomitant Medication Route of Administration codelist. (NCI)	CDISC CDASH Concomitant Medication Route of Administration Terminology
C38250	C78420		Concomitant Medication Route of Administration	INTRALESIONAL		Administration within or introduced directly into a localized lesion. (FDA)	Intralesional Route of Administration
C28161	C78420		Concomitant Medication Route of Administration	INTRAMUSCULAR		Administration within a muscle. (FDA)	Intramuscular Route of Administration
C38255	C78420		Concomitant Medication Route of Administration	INTRAOCULAR		Administration within the eye. (FDA)	Intraocular Route of Administration
C38258	C78420		Concomitant Medication Route of Administration	INTRAPERITONEAL		Administration within the peritoneal cavity. (FDA)	Intraperitoneal Route of Administration
C38284	C78420		Concomitant Medication Route of Administration	NASAL	Intranasal Route of Administration	Administration to the nose; administered by way of the nose. (FDA)	Nasal Route of Administration
C38288	C78420		Concomitant Medication Route of Administration	ORAL	Intraoral Route of Administration; PO	Administration to or by way of the mouth. (FDA)	Oral Route of Administration
C38295	C78420		Concomitant Medication Route of Administration	RECTAL		Administration to the rectum. (FDA)	Rectal Route of Administration
C38216	C78420		Concomitant Medication Route of Administration	RESPIRATORY (INHALATION)		Administration within the respiratory tract by inhaling orally or nasally for local or systemic effect. (FDA)	Inhalation Route of Administration
C38299	C78420		Concomitant Medication Route of Administration	SUBCUTANEOUS	SC; Subdermal Route of Administration	Administration beneath the skin; hypodermic. Synonymous with the term SUBDERMAL. (FDA)	Subcutaneous Route of Administration
C38304	C78420		Concomitant Medication Route of Administration	TOPICAL	TOP	Administration to a particular spot on the outer surface of the body. The E2B term TRANSMAMMARY is a subset of the term TOPICAL. (FDA)	Topical Route of Administration
C38305	C78420		Concomitant Medication Route of Administration	TRANSDERMAL		Administration through the dermal layer of the skin to the systemic circulation by diffusion. (FDA)	Transdermal Route of Administration
C38313	C78420		Concomitant Medication Route of Administration	VAGINAL		Administration into the vagina. (FDA)	Vaginal Route of Administration
C78422		Yes	ECG Original Units	EGORRESU	ECG Original Units	A terminology subset of the CDISC SDTM Unit codelist created for CDASH ECG Original Units codelist. (NCI)	CDISC CDASH ECG Original Units Terminology
C49673	C78422		ECG Original Units	beats/min	Beats per Minute; BPM; bpm	The number of heartbeats measured per minute time. (NCI)	Beats per Minute
C41140	C78422		ECG Original Units	ms	Millisecond; ms; msec	A unit of time, which is equal to one thousandth of a second.(NCI)	Millisecond
C42535	C78422		ECG Original Units	s	sec; Second	The base unit of time in the International System of Units (SI) equal to the duration of 9,192,631,770 periods of the specified light radiation corresponding to the transition between the two hyperfine levels of the cesium 133 atom in its ground state at 0 K.	Second
C128690		Yes	Ethnicity As Collected	ETHNICC	Ethnicity As Collected	A terminology codelist relevant to the ethnicity of an individual as collected on the case report form.	CDISC SDTM Collected Ethnicity Terminology
C158197	C128690		Ethnicity As Collected	ACHANG	AC	A Chinese person from the Achang ethnic group.	Achang Chinese
C209542	C128690		Ethnicity As Collected	AFRO-LATINO	Black Latino	A person of African and Latino descent.	Afro-Latino
C17950	C128690		Ethnicity As Collected	ASHKENAZI JEW		A person of Ashkenazi Jewish descent.	Ashkenazi Jew
C158171	C128690		Ethnicity As Collected	BAI	BA	A Chinese person from the Bai ethnic group.	Bai Chinese
C158193	C128690		Ethnicity As Collected	BLANG	BL	A Chinese person from the Blang ethnic group.	Blang Chinese
C158203	C128690		Ethnicity As Collected	BONAN	BN	A Chinese person from the Bonan ethnic group.	Bonan Chinese
C158169	C128690		Ethnicity As Collected	BUYEI	BY	A Chinese person from the Buyei ethnic group.	Buyei Chinese
C67118	C128690		Ethnicity As Collected	CENTRAL AMERICAN		A person of Central American descent.	Central American
C158172	C128690		Ethnicity As Collected	CHOSEN	CS	A Chinese person from the Chosen ethnic group.	Chosen Chinese
C67115	C128690		Ethnicity As Collected	CUBAN AMERICAN		A person of Cuban and American descent.	Cuban or Cuban American
C107608	C128690		Ethnicity As Collected	CUBAN		A person of Cuban descent.	Cuban
C158176	C128690		Ethnicity As Collected	DAI	DA	A Chinese person from the Dai (including several different Tai-speaking groups historically referred to as Bai-yi) ethnic group.	Dai Chinese
C158191	C128690		Ethnicity As Collected	DAUR	DU	A Chinese person from the Daur ethnic group.	Daur Chinese
C158202	C128690		Ethnicity As Collected	DEANG	DE	A Chinese person from the Deang ethnic group.	Deang Chinese
C158209	C128690		Ethnicity As Collected	DERUNG	DR	A Chinese person from the Derung ethnic group.	Derung Chinese
C158168	C128690		Ethnicity As Collected	DONG	DO	A Chinese person from the Dong ethnic group.	Dong Chinese
C158179	C128690		Ethnicity As Collected	DONGXIANG	DX	A Chinese person from the Dongxiang ethnic group.	Dongxiang Chinese
C158199	C128690		Ethnicity As Collected	EWENKI	EW	A Chinese person from the Ewenki ethnic group.	Ewenki Chinese
C158211	C128690		Ethnicity As Collected	GAOSHAN	GS	A Chinese person from the Gaoshan ethnic group.	Gaoshan Chinese
C158180	C128690		Ethnicity As Collected	GELAO	GL	A Chinese person from the Gelao ethnic group.	Gelao Chinese
C158200	C128690		Ethnicity As Collected	GIN	GI	A Chinese person from the Gin ethnic group.	Gin Chinese
C158158	C128690		Ethnicity As Collected	HAN	HA	A Chinese person from the Han ethnic group (including Chuanqing).	Han Chinese
C158173	C128690		Ethnicity As Collected	HANI	HN	A Chinese person from the Hani (including Sangkong) ethnic group.	Hani Chinese
C158210	C128690		Ethnicity As Collected	HEZHEN	HZ	A Chinese person from the Hezhen ethnic group.	Hezhen Chinese
C17459	C128690		Ethnicity As Collected	HISPANIC OR LATINO		A person of Mexican, Puerto Rican, Cuban, Central or South American or other Spanish culture or origin, regardless of race. (NCI)	Hispanic or Latino
C209543	C128690		Ethnicity As Collected	HISPANIC		Any of the peoples in the Americas and Spain who speak Spanish or are descended from Spanish-speaking communities.	Hispanic
C158160	C128690		Ethnicity As Collected	HUI	HU	A Chinese person from the Hui (including Utsuls of Hainan, descended from Cham refugees) ethnic group.	Hui Chinese
C158190	C128690		Ethnicity As Collected	JINGPO	JP	A Chinese person from the Jingpo ethnic group.	Jingpo Chinese
C158201	C128690		Ethnicity As Collected	JINO	JN	A Chinese person from the Jino ethnic group.	Jino Chinese
C158175	C128690		Ethnicity As Collected	KAZAK	KZ	A Chinese person from the Kazak ethnic group.	Kazak Chinese
C158189	C128690		Ethnicity As Collected	KIRGIZ	KG	A Chinese person from the Kirgiz ethnic group.	Kirgiz Chinese
C205491	C128690		Ethnicity As Collected	KURDISH		A person from the Kurdish ethnic group.	Kurdish
C158181	C128690		Ethnicity As Collected	LAHU	LH	A Chinese person from the Lahu ethnic group.	Lahu Chinese
C126531	C128690		Ethnicity As Collected	LATIN AMERICAN		A person of Latin American descent.	Latin American
C209544	C128690		Ethnicity As Collected	LATINO	Latina; LatinX	A person with origins from anywhere in Latin America (Mexico, South and Central America) and/or the Caribbean.	Latino
C209545	C128690		Ethnicity As Collected	LATINO-CARIBBEAN	Latin Caribbean	A person of Latino and Caribbean descent.	Latino-Caribbean
C158212	C128690		Ethnicity As Collected	LHOBA	LB	A Chinese person from the Lhoba ethnic group.	Lhoba Chinese
C158174	C128690		Ethnicity As Collected	LI	LI	A Chinese person from the Li ethnic group.	Li Chinese
C158178	C128690		Ethnicity As Collected	LISU	LS	A Chinese person from the Lisu ethnic group.	Lisu Chinese
C158161	C128690		Ethnicity As Collected	MAN	MA	A Chinese person from the Man ethnic group.	Man Chinese
C158194	C128690		Ethnicity As Collected	MAONAN	MN	A Chinese person from the Maonan (including the Then) ethnic group.	Maonan Chinese
C67114	C128690		Ethnicity As Collected	MEXICAN AMERICAN		A person of Mexican and American descent.	Mexican American
C67113	C128690		Ethnicity As Collected	MEXICAN		A person of Mexican descent.	Mexican
C158163	C128690		Ethnicity As Collected	MIAO	MH	A Chinese person from the Miao (Including Hmong) ethnic group.	Miao Chinese
C158207	C128690		Ethnicity As Collected	MONBA	MB	A Chinese person from the Monba ethnic group.	Monba Chinese
C158167	C128690		Ethnicity As Collected	MONGOL	MG	A Chinese person from the Mongol ethnic group.	Mongol Chinese
C158187	C128690		Ethnicity As Collected	MULAO	ML	A Chinese person from the Mulao (including the Qago) ethnic group.	Mulao Chinese
C158184	C128690		Ethnicity As Collected	NAXI	NX	A Chinese person from the Naxi (including Mosuo) ethnic group.	Naxi Chinese
C41222	C128690		Ethnicity As Collected	NOT HISPANIC OR LATINO		A person not of Cuban, Mexican, Puerto Rican, South or Central American, or other Spanish culture or origin, regardless of race. An arbitrary ethnic classification. (NCI)	Not Hispanic or Latino
C43234	C128690		Ethnicity As Collected	NOT REPORTED	Not reported	Not provided or available.	Not Reported
C158198	C128690		Ethnicity As Collected	NU	NU	A Chinese person from the Nu ethnic group.	Nu Chinese
C158208	C128690		Ethnicity As Collected	OROQEN	OR	A Chinese person from the Oroqen ethnic group.	Oroqen Chinese
C67112	C128690		Ethnicity As Collected	PUERTO RICAN		A person of Puerto Rican descent.	Puerto Rican
C158196	C128690		Ethnicity As Collected	PUMI	PM	A Chinese person from the Pumi ethnic group.	Pumi Chinese
C158185	C128690		Ethnicity As Collected	QIANG	QI	A Chinese person from the Qiang ethnic group.	Qiang Chinese
C158204	C128690		Ethnicity As Collected	RUSS	RS	A Chinese person from the Russ ethnic group.	Russ Chinese
C158192	C128690		Ethnicity As Collected	SALAR	SL	A Chinese person from the Salar ethnic group.	Salar Chinese
C103283	C128690		Ethnicity As Collected	SEPHARDIC JEW		A person of Sephardic Jewish descent.	Sephardic Jew
C158177	C128690		Ethnicity As Collected	SHE	SH	A Chinese person from the She ethnic group.	She Chinese
C126532	C128690		Ethnicity As Collected	SOUTH AMERICAN		A person of South American descent.	South American
C67120	C128690		Ethnicity As Collected	SPANISH	Spaniard	A person from Spain or of Spanish descent.	Spanish
C158183	C128690		Ethnicity As Collected	SUI	SU	A Chinese person from the Sui ethnic group.	Sui Chinese
C158195	C128690		Ethnicity As Collected	TAJIK	TA	A Chinese person from the Tajik ethnic group.	Tajik Chinese
C158213	C128690		Ethnicity As Collected	TATAR	TT	A Chinese person from the Tatar ethnic group.	Tatar Chinese
C158186	C128690		Ethnicity As Collected	TU	TU	A Chinese person from the Tu ethnic group.	Tu Chinese
C158165	C128690		Ethnicity As Collected	TUJIA	TJ	A Chinese person from the Tujia ethnic group.	Tujia Chinese
C17998	C128690		Ethnicity As Collected	UNKNOWN	U; UNK; Unknown	Not known, not observed, not recorded, or refused. (NCI)	Unknown
C158162	C128690		Ethnicity As Collected	UYGUR	UG	A Chinese person from the Uygur ethnic group.	Uygur Chinese
C158206	C128690		Ethnicity As Collected	UZBEK	UZ	A Chinese person from the Uzbek ethnic group.	Uzbek Chinese
C158182	C128690		Ethnicity As Collected	VA	VA	A Chinese person from the Va ethnic group.	Va Chinese
C158188	C128690		Ethnicity As Collected	XIBE	XB	A Chinese person from the Xibe ethnic group.	Xibe Chinese
C158170	C128690		Ethnicity As Collected	YAO	YA	A Chinese person from the Yao ethnic group.	Yao Chinese
C158164	C128690		Ethnicity As Collected	YI	YI	A Chinese person from the Yi ethnic group.	Yi Chinese
C158205	C128690		Ethnicity As Collected	YUGUR	YG	A Chinese person from the Yugur ethnic group.	Yugur Chinese
C158166	C128690		Ethnicity As Collected	ZANG	ZA	A Chinese person from the Zang (including Amdowa, Khampa and some Pumi speakers) ethnic group.	Zang Chinese
C158159	C128690		Ethnicity As Collected	ZHUANG	ZH	A Chinese person from the Zhuang ethnic group.	Zhuang Chinese
C78426		Yes	Exposure Dose Form	EXDOSFRM	Exposure Dose Form	A terminology subset of the CDISC SDTM Pharmaceutical Dosage Form codelist created for CDASH Exposure Dose Form codelist. (NCI)	CDISC CDASH Exposure Dose Form Terminology
C42887	C78426		Exposure Dose Form	AEROSOL	aer	A product that is packaged under pressure and contains therapeutically active ingredients that are released upon activation of an appropriate valve system; it is intended for topical application to the skin as well as local application into the nose (nasal aerosols), mouth (lingual aerosols), or lungs (inhalation aerosols).	Aerosol Dosage Form
C25158	C78426		Exposure Dose Form	CAPSULE	cap	A solid pharmaceutical dosage form that contains medicinal agent within either a hard or soft soluble container or shell, usually used for the oral administration of medicine. The shells are made of a suitable form of gelatin or other substance. (NCI)	Capsule Dosage Form
C28944	C78426		Exposure Dose Form	CREAM		A semisolid emulsion of either the oil-in-water or the water-in-oil type, ordinarily intended for topical use. (NCI)	Cream Dosage Form
C42933	C78426		Exposure Dose Form	GAS		Any elastic aeriform fluid in which the molecules are separated from one another and have free paths. (NCI)	Gas Dosage Form
C42934	C78426		Exposure Dose Form	GEL		A semisolid (1) dosage form that contains a gelling agent to provide stiffness to a solution or a colloidal dispersion (2). A gel may contain suspended particles. Note 1: A semisolid is not pourable; it does not flow or conform to its container at room temperature. It does not flow at low shear stress and generally exhibits plastic flow behavior. Note 2: A colloidal dispersion is a system in which particles of colloidal dimension (i.e., typically between 1 nm and 1 micrometer) are distributed uniformly throughout a liquid.	Gel Dosage Form
C42966	C78426		Exposure Dose Form	OINTMENT	oint	A suspension or emulsion, semisolid (1) dosage form, usually containing less than 20 percent water and volatiles (2) and greater than 50 percent hydrocarbons, waxes, or polyols as the vehicle. This dosage form is generally for external application to the skin or mucous membranes. Note 1: A semisolid is not pourable; it does not flow or conform to its container at room temperature. It does not flow at low shear stress and generally exhibits plastic flow behavior. Note 2: Percent water and volatiles are measured by a loss on drying test in which the sample is heated at 105 degrees C until constant weight is achieved.	Ointment Dosage Form
C42968	C78426		Exposure Dose Form	PATCH		A drug delivery system that often contains an adhesive backing that is usually applied to an external site on the body. Its ingredients either passively diffuse from, or are actively transported from, some portion of the patch. Depending upon the patch, the ingredients are either delivered to the outer surface of the body or into the body. A patch is sometimes synonymous with the terms Extended Release Film and System.	Patch Dosage Form
C42972	C78426		Exposure Dose Form	POWDER		An intimate mixture of dry, finely divided drugs and/or chemicals that may be intended for internal or external use. (NCI)	Powder Dosage Form
C42989	C78426		Exposure Dose Form	SPRAY		A liquid minutely divided as by a jet of air or steam. (NCI)	Spray Dosage Form
C42993	C78426		Exposure Dose Form	SUPPOSITORY	supp	A solid body of various weights and shapes, adapted for introduction into the rectal, vaginal, or urethral orifice of the human body; they usually melt, soften, or dissolve at body temperature.	Suppository Dosage Form
C42994	C78426		Exposure Dose Form	SUSPENSION	Ready to Use Suspension; susp	A dosage form that contains solid particles dispersed in a liquid vehicle.	Suspension Dosage Form
C42998	C78426		Exposure Dose Form	TABLET	tab	A solid dosage form containing medicinal substances with or without suitable diluents. (NCI)	Tablet Dosage Form
C78745		Yes	Exposure Dosing Frequency per Interval	EXDOSFRQ	Exposure Dosing Frequency per Interval	A terminology subset of the CDISC SDTM Frequency codelist created for CDASH Exposure Dosing Frequency per Interval codelist. (NCI)	CDISC CDASH Exposure Dosing Frequency per Interval Terminology
C64496	C78745		Exposure Dosing Frequency per Interval	BID	BD; Twice per day	Two times per day, at unspecified times. (NCI)	Twice Daily
C64499	C78745		Exposure Dosing Frequency per Interval	PRN	As needed	As needed. (NCI)	As Needed
C25473	C78745		Exposure Dosing Frequency per Interval	QD	/day; Daily; Per Day	A rate of occurrences within a period of time equal to one day.	Daily
C64530	C78745		Exposure Dosing Frequency per Interval	QID	4 times per day	Four times per day. (NCI)	Four Times Daily
C64498	C78745		Exposure Dosing Frequency per Interval	QM	Every Month; Per Month	Every month. (NCI)	Monthly
C64525	C78745		Exposure Dosing Frequency per Interval	QOD	Every other day; Every Second Day; Every Two Days; Q2D	Every other day. (NCI)	Every Other Day
C64527	C78745		Exposure Dosing Frequency per Interval	TID	3 times per day	Three times per day. (NCI)	Three Times Daily
C17998	C78745		Exposure Dosing Frequency per Interval	UNKNOWN	U; UNK; Unknown	Not known, not observed, not recorded, or refused. (NCI)	Unknown
C78425		Yes	Exposure Route of Administration	EXROUTE	Exposure Route of Administration	A terminology subset of the CDISC SDTM Route codelist created for CDASH Exposure Route of Administration codelist. (NCI)	CDISC CDASH Exposure Route of Administration Terminology
C38250	C78425		Exposure Route of Administration	INTRALESIONAL		Administration within or introduced directly into a localized lesion. (FDA)	Intralesional Route of Administration
C28161	C78425		Exposure Route of Administration	INTRAMUSCULAR		Administration within a muscle. (FDA)	Intramuscular Route of Administration
C38255	C78425		Exposure Route of Administration	INTRAOCULAR		Administration within the eye. (FDA)	Intraocular Route of Administration
C38258	C78425		Exposure Route of Administration	INTRAPERITONEAL		Administration within the peritoneal cavity. (FDA)	Intraperitoneal Route of Administration
C38284	C78425		Exposure Route of Administration	NASAL	Intranasal Route of Administration	Administration to the nose; administered by way of the nose. (FDA)	Nasal Route of Administration
C38288	C78425		Exposure Route of Administration	ORAL	Intraoral Route of Administration; PO	Administration to or by way of the mouth. (FDA)	Oral Route of Administration
C38295	C78425		Exposure Route of Administration	RECTAL		Administration to the rectum. (FDA)	Rectal Route of Administration
C38216	C78425		Exposure Route of Administration	RESPIRATORY (INHALATION)		Administration within the respiratory tract by inhaling orally or nasally for local or systemic effect. (FDA)	Inhalation Route of Administration
C38299	C78425		Exposure Route of Administration	SUBCUTANEOUS	SC; Subdermal Route of Administration	Administration beneath the skin; hypodermic. Synonymous with the term SUBDERMAL. (FDA)	Subcutaneous Route of Administration
C38304	C78425		Exposure Route of Administration	TOPICAL	TOP	Administration to a particular spot on the outer surface of the body. The E2B term TRANSMAMMARY is a subset of the term TOPICAL. (FDA)	Topical Route of Administration
C38305	C78425		Exposure Route of Administration	TRANSDERMAL		Administration through the dermal layer of the skin to the systemic circulation by diffusion. (FDA)	Transdermal Route of Administration
C38313	C78425		Exposure Route of Administration	VAGINAL		Administration into the vagina. (FDA)	Vaginal Route of Administration
C181165		Yes	Mode of Delivery	MODDLV	Mode of Delivery	A terminology codelist relevant to the mode of delivery of a fetus or neonate.	CDISC SDTM Mode of Delivery Terminology
C114136	C181165		Mode of Delivery	BREECH EXTRACTION		The delivery of a breech-presenting fetus, which is manually pulled through the birth canal.	Breech Extraction
C46088	C181165		Mode of Delivery	CESAREAN SECTION	C-Section; Cesarean Delivery	Surgical delivery of one or more intrauterine fetuses though an abdominal incision.	Cesarean Section
C114143	C181165		Mode of Delivery	DELIVERY BY DESTRUCTIVE OPERATION		Extraction of a fetus through the cervix using destructive surgical techniques.	Delivery by Destructive Operation
C81301	C181165		Mode of Delivery	VAGINAL ASSISTED DELIVERY	Operative Vaginal Delivery	Birth of the fetus through the vagina with the application of vacuum or forceps or any other instrument.	Vaginal Assisted Delivery
C81302	C181165		Mode of Delivery	VAGINAL BIRTH AFTER CESAREAN DELIVERY		A vaginal birth in a woman with one or more previous cesarean births. (reVITALize)	Vaginal Birth after Cesarean Delivery
C81303	C181165		Mode of Delivery	VAGINAL DELIVERY		Birth of the fetus through the vagina.	Vaginal Delivery
C128689		Yes	Race As Collected	RACEC	Race As Collected	A terminology codelist relevant to the race of an individual as collected on the case report form.	CDISC SDTM Collected Race Terminology
C154875	C128689		Race As Collected	ABORIGINAL AUSTRALIAN		The native people of Australia.	Aboriginal Australian
C43874	C128689		Race As Collected	AFGHAN	Afghanistani	A person having origins in any of the original peoples of Afghanistan.	Afghanistani
C128937	C128689		Race As Collected	AFRICAN AMERICAN	Afro-American	A person having origins in the original peoples of sub-Saharan Africa and the United States.	African American
C41226	C128689		Race As Collected	AFRICAN CARIBBEAN	Afro-Caribbean	A person having origins in the original peoples of sub-Saharan Africa and the Caribbean.	African Caribbean
C42331	C128689		Race As Collected	AFRICAN		A person having origins in any of the original peoples of Africa.	African
C18237	C128689		Race As Collected	ALASKA NATIVE		The native people of Alaska.	Alaska Native
C41259	C128689		Race As Collected	AMERICAN INDIAN OR ALASKA NATIVE		A person having origins in any of the original peoples of North and South America (including Central America), and who maintains tribal affiliation or community attachment. (FDA)	American Indian or Alaska Native
C43877	C128689		Race As Collected	AMERICAN INDIAN		The native people of North America.	American Indian
C43876	C128689		Race As Collected	ARAB		A person having origins in any of the original peoples of the Arabian peninsula and surrounding territories in the Middle East and northern Africa.	Arab
C209663	C128689		Race As Collected	ARUBAN		A person having origins in any of the original peoples of Aruba.	Aruban
C16310	C128689		Race As Collected	ASIAN AMERICAN		A person having origins in the original peoples of Asia and the United States.	Asian American
C41262	C128689		Race As Collected	ASIAN INDIAN		A person having origins in any of the original peoples of the Indian subcontinent.	Asian Indian
C41260	C128689		Race As Collected	ASIAN		A person having origins in any of the original peoples of the Far East, Southeast Asia, or the Indian subcontinent including, for example, Cambodia, China, India, Japan, Korea, Malaysia, Pakistan, the Philippine Islands, Thailand, and Vietnam. (FDA)	Asian
C67271	C128689		Race As Collected	BAHAMIAN		A person having origins in any of the original peoples of the Bahamas.	Bahamian
C43671	C128689		Race As Collected	BANGLADESHI		A person having origins in any of the original peoples of Bangladesh.	Bangladeshi
C43823	C128689		Race As Collected	BARBADIAN		A person having origins in any of the original peoples of Barbados.	Barbadian
C209664	C128689		Race As Collected	BELIZEAN		A person having origins in any of the original peoples of Belize.	Belizean
C209665	C128689		Race As Collected	BERMUDAN		A person having origins in any of the original peoples of Bermuda.	Bermudan
C43673	C128689		Race As Collected	BHUTANESE		A person having origins in any of the original peoples of Bhutan.	Bhutanese
C128991	C128689		Race As Collected	BLACK CENTRAL AMERICAN		A person having origins in the original peoples of sub-Saharan Africa and Central America.	Black Central American
C16352	C128689		Race As Collected	BLACK OR AFRICAN AMERICAN		A person having origins in any of the black racial groups of Africa. Terms such as "Haitian" or "Negro" can be used in addition to "Black or African American." (FDA)	Black or African American
C209666	C128689		Race As Collected	BLACK SOUTH AFRICAN		A person whose ancestry is from one or more of the indigenous African peoples of South Africa.	Black South African
C128992	C128689		Race As Collected	BLACK SOUTH AMERICAN		A person having origins in the original peoples of sub-Saharan Africa and South America.	Black South American
C128938	C128689		Race As Collected	BLACK		A person having origins in the original peoples of sub-Saharan Africa or the Caribbean.	Black
C43830	C128689		Race As Collected	BOTSWANAN		A person having origins in any of the original peoples of Botswana.	Botswanan
C209667	C128689		Race As Collected	BRAZILIAN		A person having origins in any of the original peoples of Brazil.	Brazilian
C43674	C128689		Race As Collected	BURMESE		A person having origins in any of the original peoples of Myanmar (formerly Burma).	Burmese
C209668	C128689		Race As Collected	CABO VERDEAN	Cape Verdean	A person having origins in any of the original peoples of Cabo Verde (Cape Verde).	Cabo Verdean
C43399	C128689		Race As Collected	CAMBODIAN		A person having origins in any of the original peoples of Cambodia (formerly Kampuchea).	Cambodian
C44949	C128689		Race As Collected	CANADIAN INDIAN		The native people of Canada.	Canadian Indian
C77810	C128689		Race As Collected	CARIBBEAN INDIAN		The native people of the Caribbean.	Caribbean Indian
C209448	C128689		Race As Collected	CARIBBEAN		A person having origins in any of the original peoples of the Caribbean.	Caribbean Race
C209669	C128689		Race As Collected	CAYMAN ISLANDER		A person having origins in any of the original peoples of the Cayman Islands.	Cayman Islander
C44950	C128689		Race As Collected	CENTRAL AMERICAN INDIAN		The native people of Central America.	Central American Indian
C126534	C128689		Race As Collected	CENTRAL ASIAN		A person having origins in any of the original peoples of Central Asia.	Central Asian
C43403	C128689		Race As Collected	CHAMORRO		The native people of the Mariana Islands, including the United States territories of Guam and the Commonwealth of the Northern Mariana Islands in Micronesia.	Chamorran
C43391	C128689		Race As Collected	CHINESE		A person having origins in any of the original peoples of China.	Chinese
C43846	C128689		Race As Collected	CHUUKESE		The native peoples of the Chuuk State in the Federated States of Micronesia.	Chuukese
C205488	C128689		Race As Collected	COLOMBIAN	Columbian	A person having origins in any of the original peoples of Columbia.	Colombian
C209670	C128689		Race As Collected	COMORIAN		A person having origins in any of the original peoples of Comoros.	Comorian
C205493	C128689		Race As Collected	CONGOLESE		A person having origins in any of the original peoples of the Democratic Republic of the Congo .	Congolese
C43824	C128689		Race As Collected	DOMINICA ISLANDER		A person having origins in any of the original peoples of Dominica.	Dominica Islander
C67117	C128689		Race As Collected	DOMINICAN		A person having origins in any of the original peoples of the Dominican Republic.	Dominican
C161419	C128689		Race As Collected	EAST ASIAN		A person having origins in any of the original peoples of East Asia.	East Asian
C77819	C128689		Race As Collected	EASTERN EUROPEAN		A person having origins in any of the original peoples of Eastern Europe.	Eastern European
C43868	C128689		Race As Collected	EGYPTIAN		A person having origins in any of the original peoples of Egypt.	Egyptian
C43853	C128689		Race As Collected	ENGLISH		A person having origins in any of the original peoples of England.	English
C43831	C128689		Race As Collected	ETHIOPIAN		A person having origins in any of the original peoples of Ethiopia.	Ethiopian
C43851	C128689		Race As Collected	EUROPEAN		A person having origins in any of the original peoples of Europe.	European
C43410	C128689		Race As Collected	FIJIAN	Fiji Islander	A person having origins in any of the original peoples of Fiji.	Fiji Islander
C43393	C128689		Race As Collected	FILIPINO		A person having origins in any of the original peoples of the Philippines.	Filipino
C43854	C128689		Race As Collected	FRENCH		A person having origins in any of the original peoples of France.	French
C43855	C128689		Race As Collected	GERMAN		A person having origins in any of the original peoples of Germany.	German
C205483	C128689		Race As Collected	GHANAIAN		A person having origins in any of the original peoples of Ghana.	Ghanian
C44265	C128689		Race As Collected	GREENLAND INUIT		The native people of Greenland.	Greenland Eskimo
C43837	C128689		Race As Collected	GUAMANIAN OR CHAMORRO		A person having origins in the original peoples of the United States territories of Guam and the Commonwealth of the Northern Mariana Islands in Micronesia.	Guamanian or Chamorro
C43404	C128689		Race As Collected	GUAMANIAN		A person having origins in any of the original peoples of Guam.	Guamanian
C205486	C128689		Race As Collected	GUATEMALAN		A person having origins in any of the original peoples of Guatemala.	Guatemalan
C209671	C128689		Race As Collected	GUYANESE		A person having origins in any of the original peoples of Guyana.	Guyanese
C43825	C128689		Race As Collected	HAITIAN		A person having origins in any of the original peoples of Haiti.	Haitian
C43398	C128689		Race As Collected	HMONG		The native people originating in China around the Yellow River or Hoang Ho.	Hmong
C205487	C128689		Race As Collected	HONDURAN		A person having origins in any of the original peoples of Honduras.	Honduran
C43715	C128689		Race As Collected	INDONESIAN		A person having origins in any of the original peoples of Indonesia.	Indonesian
C44268	C128689		Race As Collected	INUPIAT INUIT		The native people inhabiting the territory spanning the Norton Sound on the Bering Sea to the Canadian border.	Inupiat Eskimo
C43869	C128689		Race As Collected	IRANIAN		A person having origins in any of the original peoples of Iran.	Iranian
C43870	C128689		Race As Collected	IRAQI		A person having origins in any of the original peoples of Iraq.	Iraqi
C43856	C128689		Race As Collected	IRISH		A person having origins in any of the original peoples of Ireland.	Irish
C43875	C128689		Race As Collected	ISRAELI		A person having origins in any of the original peoples of Israel.	Israeli
C43857	C128689		Race As Collected	ITALIAN		A person having origins in any of the original peoples of Italy.	Italian
C43718	C128689		Race As Collected	IWO JIMAN		A person having origins in any of the original peoples of Iwo Jima.	Iwo Jiman
C43826	C128689		Race As Collected	JAMAICAN		A person having origins in any of the original peoples of Jamaica.	Jamaican
C43392	C128689		Race As Collected	JAPANESE		A person having origins in any of the original peoples of Japan.	Japanese
C154874	C128689		Race As Collected	KHOISAN		The native people of the Western Cape in southern Africa.	Khoisan
C43395	C128689		Race As Collected	KOREAN		A person having origins in any of the original peoples of North and South Korea.	Korean
C43397	C128689		Race As Collected	LAOTIAN		A person having origins in any of the original peoples of Laos.	Laotian
C209672	C128689		Race As Collected	LATIN AMERICAN INDIAN		The native people of Latin America (Mexico, South and Central America).	Latin American Indian
C126531	C128689		Race As Collected	LATIN AMERICAN		A person of Latin American descent.	Latin American
C43871	C128689		Race As Collected	LEBANESE		A person having origins in any of the original peoples of Lebanon.	Lebanese
C43832	C128689		Race As Collected	LIBERIAN		A person having origins in any of the original peoples of Liberia.	Liberian
C43722	C128689		Race As Collected	MALAGASY		A person having origins in any of the original peoples of Madagascar.	Malagasy
C43716	C128689		Race As Collected	MALAYSIAN		A person having origins in any of the original peoples of Malaysia.	Malaysian
C43719	C128689		Race As Collected	MALDIVIAN		A person having origins in any of the original peoples of the Maldives.	Maldivian
C158274	C128689		Race As Collected	MAORI		The native people of New Zealand.	Maori
C43839	C128689		Race As Collected	MARSHALLESE		A person having origins in any of the original peoples of the Marshall Islands.	Marshallese
C209673	C128689		Race As Collected	MAURITANIAN		A person having origins in any of the original peoples of Mauritania.	Mauritanian
C77811	C128689		Race As Collected	MEDITERRANEAN		A person having origins in any of the original peoples of the countries surrounding the Mediterranean sea.	Mediterranean
C43409	C128689		Race As Collected	MELANESIAN		A person having origins in any of the original peoples of Melanesia.	Melanesian
C43402	C128689		Race As Collected	MICRONESIAN		A person having origins in any of the original peoples of Micronesia.	Micronesian
C77820	C128689		Race As Collected	MIDDLE EASTERN		A person having origins in any of the original peoples of the Middle East.	Middle Eastern
C43864	C128689		Race As Collected	MONGOLIAN		A person having origins in any of the original peoples of Mongolia.	Mongolian
C205489	C128689		Race As Collected	MOROCCAN		A person having origins in any of the original peoples of Morocco.	Moroccan
C43833	C128689		Race As Collected	NAMIBIAN		A person having origins in any of the original peoples of Namibia.	Namibian
C41219	C128689		Race As Collected	NATIVE HAWAIIAN OR OTHER PACIFIC ISLANDER		Denotes a person having origins in any of the original peoples of Hawaii, Guam, Samoa, or other Pacific Islands. The term covers particularly people who identify themselves as part-Hawaiian, Native Hawaiian, Guamanian or Chamorro, Carolinian, Samoan, Chuu. (FDA)	Native Hawaiian or Other Pacific Islander
C43394	C128689		Race As Collected	NATIVE HAWAIIAN		A person having origins in any of the original peoples of Hawaii. (NCI)	Native Hawaiian
C43720	C128689		Race As Collected	NEPALESE		A person having origins in any of the original peoples of Nepal.	Nepalese
C43834	C128689		Race As Collected	NIGERIAN		A person having origins in any of the original peoples of Nigeria.	Nigerian
C77813	C128689		Race As Collected	NORTH AFRICAN		A person having origins in any of the original peoples of North Africa.	North Coast of Africa
C77814	C128689		Race As Collected	NORTHERN EUROPEAN		A person having origins in any of the original peoples of Northern Europe.	Northern European
C43862	C128689		Race As Collected	NORWEGIAN		A person having origins in any of the original peoples of Norway.	Norwegian
C43234	C128689		Race As Collected	NOT REPORTED	Not reported	Not provided or available.	Not Reported
C43717	C128689		Race As Collected	OKINAWAN		A person having origins in any of the original peoples of Okinawa.	Okinawan
C107602	C128689		Race As Collected	OTHER PACIFIC ISLANDER		A person having origins in the original peoples of the Pacific Islands, but not Guam, Hawaii, the Mariana Islands or Samoa. (NCI)	Other Pacific Islander
C17649	C128689		Race As Collected	OTHER	Other	Different than the one(s) previously specified or mentioned. (NCI)	Other
C43427	C128689		Race As Collected	PAKISTANI		A person having origins in any of the original peoples of Pakistan.	Pakistani
C43840	C128689		Race As Collected	PALAUAN		A person having origins in any of the original peoples of Palau.	Palauan
C43858	C128689		Race As Collected	POLISH		A person having origins in any of the original peoples of Poland.	Polish
C43405	C128689		Race As Collected	POLYNESIAN		A person having origins in any of the original peoples of Polynesia.	Polynesian
C43860	C128689		Race As Collected	RUSSIAN		A person having origins in any of the original peoples of Russia.	Russian
C205485	C128689		Race As Collected	SALVADORAN	Salvadorian	A person having origins in any of the original peoples of El Salvador.	Salvadoran
C43407	C128689		Race As Collected	SAMOAN		A person having origins in any of the original peoples of Samoa. (NCI)	Samoan
C43859	C128689		Race As Collected	SCOTTISH		A person having origins in any of the original peoples of Scotland.	Scottish
C44269	C128689		Race As Collected	SIBERIAN ESKIMO		The native Yupik people inhabiting the coast of the Chukchi Peninsula in the far northeast of the Russian Federation and on St. Lawrence Island in Alaska.	Siberian Eskimo
C43721	C128689		Race As Collected	SINGAPOREAN		A person having origins in any of the original peoples of Singapore.	Singaporean
C205482	C128689		Race As Collected	SOMALI	Somalian	A person having origins in any of the original peoples of Somalia.	Somali
C44953	C128689		Race As Collected	SOUTH AMERICAN INDIAN		The native people of South America.	South American Indian
C41263	C128689		Race As Collected	SOUTH ASIAN		A person having origins in any of the original peoples of the South Asia.	South Asian
C126533	C128689		Race As Collected	SOUTHEAST ASIAN		A person having origins in any of the original peoples of Southeast Asia.	Southeast Asian
C156583	C128689		Race As Collected	SOUTHERN AFRICAN COLOURED		A person whose ancestry is from one or more of the indigenous Southern African peoples and one or more of the naturalized racial groups of Southern Africa (typically Western European, South Asian, or Southeastern Asian).	Southern African Coloured
C43672	C128689		Race As Collected	SRI LANKAN		A person having origins in any of the original peoples of Sri Lanka.	Sri Lankan
C153346	C128689		Race As Collected	SUB-SAHARAN AFRICAN		A person having origins in any of the original peoples of sub-Saharan Africa.	Sub-Saharan African
C209674	C128689		Race As Collected	SURINAMESE		A person having origins in any of the original peoples of Suriname.	Surinamese
C43861	C128689		Race As Collected	SWEDISH		A person having origins in any of the original peoples of Sweden.	Swedish
C43873	C128689		Race As Collected	SYRIAN		A person having origins in any of the original peoples of Syria.	Syrian
C43406	C128689		Race As Collected	TAHITIAN		A person having origins in any of the original peoples of Tahiti.	Tahitian
C43675	C128689		Race As Collected	TAIWANESE		A person having origins in any of the original peoples of Taiwan.	Taiwanese
C43400	C128689		Race As Collected	THAI		A person having origins in any of the original peoples of Thailand.	Thai
C43827	C128689		Race As Collected	TOBAGOAN		A person having origins in any of the original peoples of Tobago.	Tobagoan
C43408	C128689		Race As Collected	TONGAN		A person having origins in any of the original peoples of Tonga.	Tongan
C43828	C128689		Race As Collected	TRINIDADIAN		A person having origins in any of the original peoples of Trinidad.	Trinidadian
C17998	C128689		Race As Collected	UNKNOWN	U; UNK; Unknown	Not known, not observed, not recorded, or refused. (NCI)	Unknown
C43396	C128689		Race As Collected	VIETNAMESE		A person having origins in any of the original peoples of Viet Nam.	Vietnamese
C153343	C128689		Race As Collected	WEST ASIAN		A person having origins in any of the original peoples of Western Asia.	Western Asian
C43829	C128689		Race As Collected	WEST INDIAN		A person having origins in any of the original peoples of the West Indies.	West Indian
C77817	C128689		Race As Collected	WESTERN EUROPEAN		A person having origins in any of the original peoples of Western Europe.	Western European
C77816	C128689		Race As Collected	WHITE CARIBBEAN		A person having origins in the original peoples of Europe, the Middle East, or North Africa, and the Caribbean.	White Caribbean
C128993	C128689		Race As Collected	WHITE CENTRAL AMERICAN		A person having origins in the original peoples of Europe, the Middle East, or North Africa, and Central America.	White Central American
C128994	C128689		Race As Collected	WHITE SOUTH AMERICAN		A person having origins in the original peoples of Europe, the Middle East, or North Africa, and South America.	White South American
C41261	C128689		Race As Collected	WHITE		Denotes a person with European, Middle Eastern, or North African ancestral origin who identifies, or is identified, as White. (FDA)	White
C205490	C128689		Race As Collected	YEMENI		A person having origins in any of the original peoples of Yemen.	Yemeni
C44270	C128689		Race As Collected	YUPIK ESKIMO		The native people inhabiting western, southwestern, and southcentral Alaska and the Russian Far East.	Yupik Eskimo
C43835	C128689		Race As Collected	ZAIREAN		A person having origins in any of the original peoples of Zaire.	Zairean
C177909		No	Serious Adverse Event Report Category	SAERCAT	Serious Adverse Event Report Category	Terminology relevant to the classification of a serious adverse event report.	CDISC CDASH Serious Adverse Event Report Category Response Terminology
C41200	C177909		Serious Adverse Event Report Category	AMENDMENT	Amended	Action(s) undertaken to modify by means of correction, addition, subtraction, or replacement.	Amendment
C178052	C177909		Serious Adverse Event Report Category	NULLIFICATION	Nullified	Action(s) undertaken to void, negate, or invalidate.	Nullification
C25604	C177909		Serious Adverse Event Report Category	ORIGINAL		Preceding all others in time or being as first made or performed.	Original
C181164		Yes	Study Agent Dechallenge Reaction Response	SADCRR	Study Agent Dechallenge Reaction Response	A terminology codelist relevant to the resultant reaction due to withdrawing, interrupting, or otherwise altering administration of study treatment.	CDISC CDASH Study Agent Dechallenge Reaction Response Terminology
C181222	C181164		Study Agent Dechallenge Reaction Response	NEGATIVE DECHALLENGE		Continued presence of an adverse event after decrease or change in dose, or withdrawal of the product/drug.	Negative Dechallenge Response
C181224	C181164		Study Agent Dechallenge Reaction Response	NOT APPLICABLE DECHALLENGE		The outcome of decreasing the dose or discontinuation of the product/drug is not relevant in the current context.	Not Applicable Dechallenge Response
C181223	C181164		Study Agent Dechallenge Reaction Response	POSITIVE DECHALLENGE		Partial or complete abatement of an adverse event after decrease or change in dose, or withdrawal of the product/drug.	Positive Dechallenge Response
C181225	C181164		Study Agent Dechallenge Reaction Response	UNKNOWN DECHALLENGE		No information regarding the outcome of decreasing the dose or discontinuation of the product/drug.	Unknown Dechallenge Response
C181163		Yes	Study Agent Rechallenge Reaction Response	SARCRR	Study Agent Rechallenge Reaction Response	A terminology codelist relevant to the resultant reaction due to restarting or otherwise returning administration of study treatment to previous level, after a dechallenge event.	CDISC CDASH Study Agent Rechallenge Reaction Response Terminology
C181226	C181163		Study Agent Rechallenge Reaction Response	NEGATIVE RECHALLENGE		Failure of the product/drug, when reintroduced, to produce signs or symptoms similar to those observed when the product/drug was previously used.	Negative Rechallenge Response
C181228	C181163		Study Agent Rechallenge Reaction Response	NOT APPLICABLE RECHALLENGE		The outcome of reintroduction of product/drug is not relevant in the current context.	Not Applicable Rechallenge Response
C181227	C181163		Study Agent Rechallenge Reaction Response	POSITIVE RECHALLENGE		Recurrence of similar or new signs and symptoms upon reintroduction of the product/drug.	Positive Rechallenge Response
C181229	C181163		Study Agent Rechallenge Reaction Response	UKNOWN RECHALLENGE		No information regarding the outcome of reintroduction of product/drug.	Unknown Rechallenge Response
C83004		Yes	Substance Use Never/Current/Former Classification	SUNCF	Substance Use Never/Current/Former Classification	A terminology subset of the CDISC SDTM Never/Current/Former Classification codelist created for CDASH Substance Use Never/Current/Former Classification codelist. (NCI)	CDISC CDASH Substance Use Never/Current/Former Classification Terminology
C25471	C83004		Substance Use Never/Current/Former Classification	CURRENT		Occurring in or belonging to the present time. (NCI)	Current
C25627	C83004		Substance Use Never/Current/Former Classification	FORMER	Previous	Occurring prior to something else. (NCI)	Previous
C70543	C83004		Substance Use Never/Current/Former Classification	NEVER		Not ever; at no time in the past.	Never
C78428		Yes	Total Volume Administration Unit	EXVOLTU	Total Volume Administration Unit	A terminology subset of the CDISC SDTM Unit codelist created for CDASH Total Volume Administration Unit codelist. (NCI)	CDISC CDASH Total Volume Administration Unit Terminology
C28253	C78428		Total Volume Administration Unit	mg	Milligram	A unit of mass equal to one thousandth (1E-3) of a gram.	Milligram
C28254	C78428		Total Volume Administration Unit	mL	cc; cm3; Cubic Centimeter; Milliliter	A unit of volume equal to one thousandth (1E-3) of a liter.	Milliliter
C48152	C78428		Total Volume Administration Unit	ug	mcg; Microgram	A unit of mass equal to one millionth (1E-6) of a gram.	Microgram
C78427		Yes	Unit for the Duration of Treatment Interruption	EXINTPU	Unit for the Duration of Treatment Interruption	A terminology subset of the CDISC SDTM Unit codelist created for CDASH Unit for Duration of Treatment Interruption codelist. (NCI)	CDISC CDASH Unit for Duration of Treatment Interruption Terminology
C25529	C78427		Unit for the Duration of Treatment Interruption	HOURS	h; Hours; hr	A unit of measurement of time equal to 60 minutes.	Hour
C48154	C78427		Unit for the Duration of Treatment Interruption	min	Minute	A unit of measurement of time equal to 60 seconds.	Minute
C42535	C78427		Unit for the Duration of Treatment Interruption	s	sec; Second	The base unit of time in the International System of Units (SI) equal to the duration of 9,192,631,770 periods of the specified light radiation corresponding to the transition between the two hyperfine levels of the cesium 133 atom in its ground state at 0 K.	Second
C78421		Yes	Unit of Drug Dispensed or Returned	DAORRESU	Unit of Drug Dispensed or Returned	A terminology subset of the CDISC SDTM Unit codelist created for CDASH Unit of Drug Dispensed or Returned codelist. (NCI)	CDISC CDASH Unit of Drug Dispensed or Returned Terminology
C48474	C78421		Unit of Drug Dispensed or Returned	BAG	Bag Dosing Unit	A dosing measurement based on the bag unit.(NCI)	Bag Dosing Unit
C48477	C78421		Unit of Drug Dispensed or Returned	BOTTLE	Bottle Dosing Unit	A dosing measurement based on the bottle unit.(NCI)	Bottle Dosing Unit
C48478	C78421		Unit of Drug Dispensed or Returned	BOX	Box Dosing Unit	A dosing measurement based on the box unit.(NCI)	Box Dosing Unit
C48480	C78421		Unit of Drug Dispensed or Returned	CAPSULE	cap; Capsule Dosing Unit	A dosing measurement based on the capsule unit.(NCI)	Capsule Dosing Unit
C48484	C78421		Unit of Drug Dispensed or Returned	CONTAINER	Container Dosing Unit	A dosing measurement based on the container unit.(NCI)	Container Dosing Unit
C48490	C78421		Unit of Drug Dispensed or Returned	DISK	Disk Dosing Unit	A dosing measurement based on the disk unit.(NCI)	Disk Dosing Unit
C48520	C78421		Unit of Drug Dispensed or Returned	PACKAGE	Pack Dosing Unit; Package Dosing Unit	A dosing measurement based on the package unit.(NCI)	Package Dosing Unit
C48521	C78421		Unit of Drug Dispensed or Returned	PACKET	Packet Dosing Unit	A dosing measurement based on the packet unit.(NCI)	Packet Dosing Unit
C48524	C78421		Unit of Drug Dispensed or Returned	PATCH	Patch Dosing Unit	A dosing measurement based on the patch unit.(NCI)	Patch Dosing Unit
C48542	C78421		Unit of Drug Dispensed or Returned	TABLET	tab; Tablet Dosing Unit	A dosing measurement based on the tablet unit.(NCI)	Tablet Dosing Unit
C48549	C78421		Unit of Drug Dispensed or Returned	TUBE	Tube Dosing Unit	A dosing measurement based on the tube unit.(NCI)	Tube Dosing Unit
C48551	C78421		Unit of Drug Dispensed or Returned	VIAL	Vial Dosing Unit	A dosing measurement based on the vial unit.(NCI)	Vial Dosing Unit
C78429		Yes	Unit of Measure for Flow Rate	EXFLRTU	Unit of Measure for Flow Rate	A terminology subset of the CDISC SDTM Unit codelist created for CDASH Unit of Measure for Flow Rate codelist. (NCI)	CDISC CDASH Unit of Measure for Flow Rate Terminology
C64777	C78429		Unit of Measure for Flow Rate	mL/min		A unit of flow rate equal to one milliliter per minute.	Milliliter per Minute
C67420	C78429		Unit of Measure for Flow Rate	mmol/day	mmol/24h	A unit of substance flow rate equal to one millimole per day.	Millimole per 24 Hours
C71205	C78429		Unit of Measure for Flow Rate	ug/day	mcg/day	A unit of mass flow rate equal to one microgram per day.	Microgram per Day
C71211	C78429		Unit of Measure for Flow Rate	ug/min	mcg/min	A unit of mass flow rate equal to one microgram per minute.	Microgram per Minute
C67406	C78429		Unit of Measure for Flow Rate	umol/day	mcmol/day	A unit of substance flow rate equal to one micromole per day.	Micromole per 24 Hours
C78423		Yes	Units for Exposure	EXDOSU	Units for Exposure	A terminology subset of the CDISC SDTM Unit codelist created for CDASH Units for Exposure codelist. (NCI)	CDISC CDASH Units for Exposure Terminology
C48480	C78423		Units for Exposure	CAPSULE	cap; Capsule Dosing Unit	A dosing measurement based on the capsule unit.(NCI)	Capsule Dosing Unit
C48155	C78423		Units for Exposure	g	Gram	A unit of mass equal to one thousandth (1E-3) of a kilogram, the kilogram being the base unit of mass in the International System of Units (SI).	Gram
C28253	C78423		Units for Exposure	mg	Milligram	A unit of mass equal to one thousandth (1E-3) of a gram.	Milligram
C28254	C78423		Units for Exposure	mL	cc; cm3; Cubic Centimeter; Milliliter	A unit of volume equal to one thousandth (1E-3) of a liter.	Milliliter
C65060	C78423		Units for Exposure	PUFF	Puff Dosing Unit	A means of delivering a defined dose of a therapeutic aerolized solution into either the upper or lower respiratory tract. Metered-dose inhalers or spray pumps are devices that provide a puff dose for delivery into either the oral or the nasal cavity.(NCI)	Puff Dosing Unit
C48542	C78423		Units for Exposure	TABLET	tab; Tablet Dosing Unit	A dosing measurement based on the tablet unit.(NCI)	Tablet Dosing Unit
C48152	C78423		Units for Exposure	ug	mcg; Microgram	A unit of mass equal to one millionth (1E-6) of a gram.	Microgram
C78430		Yes	Units for Planned Exposure	EXPDOSEU	Units for Planned Exposure	A terminology subset of the CDISC SDTM Unit codelist created for CDASH Units for Planned Exposure codelist. (NCI)	CDISC CDASH Units for Planned Exposure Terminology
C48480	C78430		Units for Planned Exposure	CAPSULE	cap; Capsule Dosing Unit	A dosing measurement based on the capsule unit.(NCI)	Capsule Dosing Unit
C48155	C78430		Units for Planned Exposure	g	Gram	A unit of mass equal to one thousandth (1E-3) of a kilogram, the kilogram being the base unit of mass in the International System of Units (SI).	Gram
C28253	C78430		Units for Planned Exposure	mg	Milligram	A unit of mass equal to one thousandth (1E-3) of a gram.	Milligram
C28254	C78430		Units for Planned Exposure	mL	cc; cm3; Cubic Centimeter; Milliliter	A unit of volume equal to one thousandth (1E-3) of a liter.	Milliliter
C65060	C78430		Units for Planned Exposure	PUFF	Puff Dosing Unit	A means of delivering a defined dose of a therapeutic aerolized solution into either the upper or lower respiratory tract. Metered-dose inhalers or spray pumps are devices that provide a puff dose for delivery into either the oral or the nasal cavity.(NCI)	Puff Dosing Unit
C48542	C78430		Units for Planned Exposure	TABLET	tab; Tablet Dosing Unit	A dosing measurement based on the tablet unit.(NCI)	Tablet Dosing Unit
C48152	C78430		Units for Planned Exposure	ug	mcg; Microgram	A unit of mass equal to one millionth (1E-6) of a gram.	Microgram
C78431		Yes	Vital Signs Position of Subject	VSPOS	Vital Signs Position of Subject	A terminology subset of the CDISC SDTM Position codelist created for CDASH Vital Signs Position of Subject codelist. (NCI)	CDISC CDASH Vital Signs Position of Subject Terminology
C62122	C78431		Vital Signs Position of Subject	SITTING	Sitting	The state or act of one who sits; the posture of one who occupies a seat. (NCI)	Sitting
C62166	C78431		Vital Signs Position of Subject	STANDING	Orthostatic; Standing	The act of assuming or maintaining an erect upright position. (NCI)	Standing
C62167	C78431		Vital Signs Position of Subject	SUPINE	Supine	A posterior recumbent body position whereby the person lies on its back and faces upward. (NCI)	Supine Position
