[
  {
    "_links": {
      "parentClass": {
        "href": "/mdr/cdashig/2-2/classes/Interventions",
        "title": "Interventions",
        "type": "Class"
      },
      "parentProduct": {
        "href": "/mdr/cdashig/2-2",
        "title": "Clinical Data Acquisition Standards Harmonization Implementation Guide for Human Clinical Trials Version 2.2",
        "type": "Implementation Guide"
      },
      "self": {
        "href": "/mdr/cdashig/2-2/domains/AG",
        "title": "Procedure Agents",
        "type": "CDASH Domain"
      }
    },
    "description": "An interventions domain that contains the agents administered to the subject as part of a procedure or assessment, as opposed to drugs, medications and therapies administered with therapeutic intent. (Source: CDISC Controlled Terminology, DOMAIN, C117755, 2021-06-25)",
    "fields": [
      {
        "_links": {
          "implements": {
            "href": "/mdr/cdash/1-2/classes/Identifiers/fields/STUDYID",
            "title": "Study Identifier",
            "type": "Class Variable"
          },
          "parentDomain": {
            "href": "/mdr/cdashig/2-2/domains/AG",
            "title": "Procedure Agents",
            "type": "CDASH Domain"
          },
          "parentProduct": {
            "href": "/mdr/cdashig/2-2",
            "title": "Clinical Data Acquisition Standards Harmonization Implementation Guide for Human Clinical Trials Version 2.2",
            "type": "Implementation Guide"
          },
          "rootItem": {
            "href": "/mdr/root/cdashig/domains/AG/fields/STUDYID",
            "title": "Study Identifier",
            "type": "Root Data Element"
          },
          "sdtmigDatasetMappingTargets": [
            {
              "href": "/mdr/sdtmig/3-3/datasets/AG/variables/STUDYID",
              "title": "Study Identifier",
              "type": "SDTM Dataset Variable"
            }
          ],
          "self": {
            "href": "/mdr/cdashig/2-2/domains/AG/fields/STUDYID",
            "title": "Study Identifier",
            "type": "Data Collection Field"
          }
        },
        "core": "HR",
        "definition": "A unique identifier for a study.",
        "implementationNotes": "Although this field is not typically captured on a CRF, it should be displayed clearly on the CRF and/or in the EDC system. This field can be included into the database or populated during SDTM-based dataset creation before submission.",
        "label": "Study Identifier",
        "mappingInstructions": "Maps directly to the SDTMIG variable listed in the SDTMIG Target column.",
        "name": "STUDYID",
        "ordinal": "1",
        "prompt": "[Protocol/Study]",
        "questionText": "What is the study identifier?",
        "simpleDatatype": "Char"
      },
      {
        "_links": {
          "implements": {
            "href": "/mdr/cdash/1-2/classes/Identifiers/fields/SITEID",
            "title": "Study Site Identifier",
            "type": "Class Variable"
          },
          "parentDomain": {
            "href": "/mdr/cdashig/2-2/domains/AG",
            "title": "Procedure Agents",
            "type": "CDASH Domain"
          },
          "parentProduct": {
            "href": "/mdr/cdashig/2-2",
            "title": "Clinical Data Acquisition Standards Harmonization Implementation Guide for Human Clinical Trials Version 2.2",
            "type": "Implementation Guide"
          },
          "rootItem": {
            "href": "/mdr/root/cdashig/domains/AG/fields/SITEID",
            "title": "Study Site Identifier",
            "type": "Root Data Element"
          },
          "self": {
            "href": "/mdr/cdashig/2-2/domains/AG/fields/SITEID",
            "title": "Study Site Identifier",
            "type": "Data Collection Field"
          }
        },
        "core": "HR",
        "definition": "A unique identifier for a site within a study.",
        "implementationNotes": "Paper: This is typically pre-printed in the header of each CRF page for single site studies. For studies with multiple sites, this field may be left blank so that the number can be recorded by the site, or it may be pre-printed on CRFs that are shipped to each site. EDC: This should be pre-populated.",
        "label": "Study Site Identifier",
        "mappingInstructions": "Maps directly to the SDTMIG variable listed in the SDTMIG Target column.",
        "name": "SITEID",
        "ordinal": "2",
        "prompt": "Site (Identifier)",
        "questionText": "What is the site identifier?",
        "simpleDatatype": "Char"
      },
      {
        "_links": {
          "implements": {
            "href": "/mdr/cdash/1-2/classes/Identifiers/fields/SUBJID",
            "title": "Subject Identifier for the Study",
            "type": "Class Variable"
          },
          "parentDomain": {
            "href": "/mdr/cdashig/2-2/domains/AG",
            "title": "Procedure Agents",
            "type": "CDASH Domain"
          },
          "parentProduct": {
            "href": "/mdr/cdashig/2-2",
            "title": "Clinical Data Acquisition Standards Harmonization Implementation Guide for Human Clinical Trials Version 2.2",
            "type": "Implementation Guide"
          },
          "rootItem": {
            "href": "/mdr/root/cdashig/domains/AG/fields/SUBJID",
            "title": "Subject Identifier for the Study",
            "type": "Root Data Element"
          },
          "sdtmigDatasetMappingTargets": [
            {
              "href": "/mdr/sdtmig/3-3/datasets/DM/variables/SUBJID",
              "title": "Subject Identifier for the Study",
              "type": "SDTM Dataset Variable"
            }
          ],
          "self": {
            "href": "/mdr/cdashig/2-2/domains/AG/fields/SUBJID",
            "title": "Subject Identifier for the Study",
            "type": "Data Collection Field"
          }
        },
        "completionInstructions": "Record the identifier for the subject.",
        "core": "HR",
        "definition": "A unique subject identifier within a site and a study.",
        "implementationNotes": "Paper: This is typically recorded in the header of each CRF page. EDC: The subject identifiers may be system generated. This CDASH variable is typically collected in all CDASH domains. However, this CDASH variable is populated only in the SDTM DM domain. For more information, refer to the SDTMIG.",
        "label": "Subject Identifier for the Study",
        "mappingInstructions": "Maps directly to the SDTMIG variable listed in the SDTMIG Target column.",
        "name": "SUBJID",
        "ordinal": "3",
        "prompt": "[Subject/Participant] (Identifier)",
        "questionText": "What [is/was] the (study) [subject/participant] identifier?",
        "simpleDatatype": "Char"
      },
      {
        "_links": {
          "implements": {
            "href": "/mdr/cdash/1-2/classes/Interventions/fields/--CAT",
            "title": "Category",
            "type": "Class Variable"
          },
          "parentDomain": {
            "href": "/mdr/cdashig/2-2/domains/AG",
            "title": "Procedure Agents",
            "type": "CDASH Domain"
          },
          "parentProduct": {
            "href": "/mdr/cdashig/2-2",
            "title": "Clinical Data Acquisition Standards Harmonization Implementation Guide for Human Clinical Trials Version 2.2",
            "type": "Implementation Guide"
          },
          "rootItem": {
            "href": "/mdr/root/cdashig/domains/AG/fields/AGCAT",
            "title": "Category for Agent",
            "type": "Root Data Element"
          },
          "sdtmigDatasetMappingTargets": [
            {
              "href": "/mdr/sdtmig/3-3/datasets/AG/variables/AGCAT",
              "title": "Category for Agent",
              "type": "SDTM Dataset Variable"
            }
          ],
          "self": {
            "href": "/mdr/cdashig/2-2/domains/AG/fields/AGCAT",
            "title": "Category for Agent",
            "type": "Data Collection Field"
          }
        },
        "completionInstructions": "Record the procedure agent category, if not pre-printed on the CRF.",
        "core": "O",
        "definition": "A grouping of topic-variable values based on user-defined characteristics.",
        "implementationNotes": "Sponsor-defined controlled terminology. This would most commonly be either a heading or a pre-printed category value on the CRF, not a question to which the site would provide an answer. If a question is asked, the response would typically be a sponsor-defined codelist. If the form is laid out as a grid, then words such as \"Category\" can be included as the column header.",
        "label": "Category for Agent",
        "mappingInstructions": "Maps directly to the SDTMIG variable listed in the SDTMIG Target column.",
        "name": "AGCAT",
        "ordinal": "4",
        "prompt": "Procedure Agent Category; NULL",
        "questionText": "What is the category for the [procedure/assessment agent]?",
        "simpleDatatype": "Char"
      },
      {
        "_links": {
          "implements": {
            "href": "/mdr/cdash/1-2/classes/Interventions/fields/--SCAT",
            "title": "Subcategory",
            "type": "Class Variable"
          },
          "parentDomain": {
            "href": "/mdr/cdashig/2-2/domains/AG",
            "title": "Procedure Agents",
            "type": "CDASH Domain"
          },
          "parentProduct": {
            "href": "/mdr/cdashig/2-2",
            "title": "Clinical Data Acquisition Standards Harmonization Implementation Guide for Human Clinical Trials Version 2.2",
            "type": "Implementation Guide"
          },
          "rootItem": {
            "href": "/mdr/root/cdashig/domains/AG/fields/AGSCAT",
            "title": "Subcategory for Agent",
            "type": "Root Data Element"
          },
          "sdtmigDatasetMappingTargets": [
            {
              "href": "/mdr/sdtmig/3-3/datasets/AG/variables/AGSCAT",
              "title": "Subcategory for Agent",
              "type": "SDTM Dataset Variable"
            }
          ],
          "self": {
            "href": "/mdr/cdashig/2-2/domains/AG/fields/AGSCAT",
            "title": "Subcategory for Agent",
            "type": "Data Collection Field"
          }
        },
        "completionInstructions": "Record the procedure agent subcategory, if not pre-printed on the CRF.",
        "core": "O",
        "definition": "A sub-division of the AGCAT values based on user-defined characteristics.",
        "implementationNotes": "Sponsor-defined controlled terminology. This would most commonly be pre-printed on the CRF or screen and pre-populated in the data management system. This is not typically a question to which the site would provide an answer.",
        "label": "Subcategory for Agent",
        "mappingInstructions": "Maps directly to the SDTMIG variable listed in the SDTMIG Target column.",
        "name": "AGSCAT",
        "ordinal": "5",
        "prompt": "Procedure Agent Subcategory; NULL",
        "questionText": "What is the subcategory for the [procedure/assessment agent]?",
        "simpleDatatype": "Char"
      },
      {
        "_links": {
          "codelist": [
            {
              "href": "/mdr/root/ct/sdtmct/codelists/C66742",
              "title": "Version-agnostic anchor resource for codelist C66742",
              "type": "Root Value Domain"
            }
          ],
          "implements": {
            "href": "/mdr/cdash/1-2/classes/Interventions/fields/--YN",
            "title": "Any [Intervention]",
            "type": "Class Variable"
          },
          "parentDomain": {
            "href": "/mdr/cdashig/2-2/domains/AG",
            "title": "Procedure Agents",
            "type": "CDASH Domain"
          },
          "parentProduct": {
            "href": "/mdr/cdashig/2-2",
            "title": "Clinical Data Acquisition Standards Harmonization Implementation Guide for Human Clinical Trials Version 2.2",
            "type": "Implementation Guide"
          },
          "rootItem": {
            "href": "/mdr/root/cdashig/domains/AG/fields/AGYN",
            "title": "Any Procedure Agent Taken",
            "type": "Root Data Element"
          },
          "self": {
            "href": "/mdr/cdashig/2-2/domains/AG/fields/AGYN",
            "title": "Any Procedure Agent Taken",
            "type": "Data Collection Field"
          }
        },
        "completionInstructions": "Indicate if the subject was administered any procedure agents. If Yes, include the appropriate details where indicated on the CRF.",
        "core": "O",
        "definition": "An indication of whether any procedure/assessment agent(s) were administered.",
        "implementationNotes": "The intent/purpose of collecting this field is to help with data cleaning and monitoring. It provides verification that all other fields on the CRF were deliberately left blank.",
        "label": "Any Procedure Agent Taken",
        "mappingInstructions": "Does not map to an SDTMIG variable. The SDTM annotated CRF indicates that this field is NOT SUBMITTED.",
        "name": "AGYN",
        "ordinal": "6",
        "prompt": "Any procedure agents",
        "questionText": "[Were/Was] there any [procedure/assessment agent(s)] taken/administered?",
        "simpleDatatype": "Char"
      },
      {
        "_links": {
          "implements": {
            "href": "/mdr/cdash/1-2/classes/Identifiers/fields/--SPID",
            "title": "Sponsor-Defined Identifier",
            "type": "Class Variable"
          },
          "parentDomain": {
            "href": "/mdr/cdashig/2-2/domains/AG",
            "title": "Procedure Agents",
            "type": "CDASH Domain"
          },
          "parentProduct": {
            "href": "/mdr/cdashig/2-2",
            "title": "Clinical Data Acquisition Standards Harmonization Implementation Guide for Human Clinical Trials Version 2.2",
            "type": "Implementation Guide"
          },
          "rootItem": {
            "href": "/mdr/root/cdashig/domains/AG/fields/AGSPID",
            "title": "AG Sponsor-Defined Identifier",
            "type": "Root Data Element"
          },
          "sdtmigDatasetMappingTargets": [
            {
              "href": "/mdr/sdtmig/3-3/datasets/AG/variables/AGSPID",
              "title": "Sponsor-Defined Identifier",
              "type": "SDTM Dataset Variable"
            }
          ],
          "self": {
            "href": "/mdr/cdashig/2-2/domains/AG/fields/AGSPID",
            "title": "AG Sponsor-Defined Identifier",
            "type": "Data Collection Field"
          }
        },
        "completionInstructions": "If collected on the CRF, sponsor may insert instructions to ensure each record has a unique identifier.",
        "core": "O",
        "definition": "A sponsor-defined identifier. In CDASH, this is typically used for pre-printed or auto-generated numbers on the CRF, or any other type of identifier that does not already have a defined CDASH identifier field.",
        "implementationNotes": "Because SPID is a sponsor-defined identifier, conformance to Question Text or Item Prompt is not applicable. Typically used as an identifier in a data query to communicate clearly to the site the specific record in question or to reconcile procedure agent records with AEs and/or MH. May be used to record pre-printed number (e.g. line number, record number) on the CRF. This field may be populated by the sponsor's data collection system.",
        "label": "AG Sponsor-Defined Identifier",
        "mappingInstructions": "Maps directly to the SDTMIG variable listed in the SDTMIG Target column. May be used to create RELREC to link this record with a record in another domain.",
        "name": "AGSPID",
        "ordinal": "7",
        "prompt": "[Sponsor defined]",
        "questionText": "[Sponsor defined question]",
        "simpleDatatype": "Char"
      },
      {
        "_links": {
          "implements": {
            "href": "/mdr/cdash/1-2/classes/Interventions/fields/--TRT",
            "title": "Name of Treatment",
            "type": "Class Variable"
          },
          "parentDomain": {
            "href": "/mdr/cdashig/2-2/domains/AG",
            "title": "Procedure Agents",
            "type": "CDASH Domain"
          },
          "parentProduct": {
            "href": "/mdr/cdashig/2-2",
            "title": "Clinical Data Acquisition Standards Harmonization Implementation Guide for Human Clinical Trials Version 2.2",
            "type": "Implementation Guide"
          },
          "rootItem": {
            "href": "/mdr/root/cdashig/domains/AG/fields/AGTRT",
            "title": "Reported Agent Name",
            "type": "Root Data Element"
          },
          "sdtmigDatasetMappingTargets": [
            {
              "href": "/mdr/sdtmig/3-3/datasets/AG/variables/AGTRT",
              "title": "Reported Agent Name",
              "type": "SDTM Dataset Variable"
            }
          ],
          "self": {
            "href": "/mdr/cdashig/2-2/domains/AG/fields/AGTRT",
            "title": "Reported Agent Name",
            "type": "Data Collection Field"
          }
        },
        "completionInstructions": "Record only 1 procedure agent per line. Provide the full trade or proprietary name of the procedure agent; otherwise the generic name may be recorded.",
        "core": "HR",
        "definition": "Verbatim name of procedure/assessment agent administered.",
        "implementationNotes": "In most cases, the verbatim drug names or treatment will be coded to a standard dictionary (e.g., WHODrug) after the data have been collected on the CRF. For the collection of verbatim procedure agents, the recommendation is to ask sites to provide the full trade or proprietary name since it is more exact than the generic. The full trade name provides the base generic and the appropriate salt for that particular drug. In addition, for coding purposes it helps with Anatomical Therapeutic Chemical (ATC) classification system code selection. For example, Tylenol with codeine #1 has a different ATC code than Tylenol with codeine #3.",
        "label": "Reported Agent Name",
        "mappingInstructions": "Maps directly to the SDTMIG variable listed in the SDTMIG Target column.",
        "name": "AGTRT",
        "ordinal": "8",
        "prompt": "[Procedure/Assessment Agent]",
        "questionText": "What was the [procedure/assessment agent] [name/term]?",
        "simpleDatatype": "Char"
      },
      {
        "_links": {
          "codelist": [
            {
              "href": "/mdr/root/ct/sdtmct/codelists/C66742",
              "title": "Version-agnostic anchor resource for codelist C66742",
              "type": "Root Value Domain"
            }
          ],
          "implements": {
            "href": "/mdr/cdash/1-2/classes/Interventions/fields/--PRESP",
            "title": "Pre-Specified Intervention",
            "type": "Class Variable"
          },
          "parentDomain": {
            "href": "/mdr/cdashig/2-2/domains/AG",
            "title": "Procedure Agents",
            "type": "CDASH Domain"
          },
          "parentProduct": {
            "href": "/mdr/cdashig/2-2",
            "title": "Clinical Data Acquisition Standards Harmonization Implementation Guide for Human Clinical Trials Version 2.2",
            "type": "Implementation Guide"
          },
          "rootItem": {
            "href": "/mdr/root/cdashig/domains/AG/fields/AGPRESP",
            "title": "AG Pre-Specified",
            "type": "Root Data Element"
          },
          "sdtmigDatasetMappingTargets": [
            {
              "href": "/mdr/sdtmig/3-3/datasets/AG/variables/AGPRESP",
              "title": "AG Pre-Specified",
              "type": "SDTM Dataset Variable"
            }
          ],
          "self": {
            "href": "/mdr/cdashig/2-2/domains/AG/fields/AGPRESP",
            "title": "AG Pre-Specified",
            "type": "Data Collection Field"
          }
        },
        "core": "O",
        "definition": "An indication that a specific procedure/assessment agent or group of agents is pre-specified on a CRF.",
        "implementationNotes": "For pre-specified interventions, a hidden field on a CRF defaulted to \"Y\", or added during the SDTM dataset creation. If a study collects both pre-specified and free-text interventions, the value of AGPRESP should be \"Y\" for all prespecified interventions and null for interventions reported as free text.",
        "label": "AG Pre-Specified",
        "mappingInstructions": "Maps directly to the SDTMIG variable listed in the SDTMIG Target column.",
        "name": "AGPRESP",
        "ordinal": "9",
        "simpleDatatype": "Char"
      },
      {
        "_links": {
          "codelist": [
            {
              "href": "/mdr/root/ct/sdtmct/codelists/C66742",
              "title": "Version-agnostic anchor resource for codelist C66742",
              "type": "Root Value Domain"
            }
          ],
          "implements": {
            "href": "/mdr/cdash/1-2/classes/Interventions/fields/--OCCUR",
            "title": "Occurrence",
            "type": "Class Variable"
          },
          "parentDomain": {
            "href": "/mdr/cdashig/2-2/domains/AG",
            "title": "Procedure Agents",
            "type": "CDASH Domain"
          },
          "parentProduct": {
            "href": "/mdr/cdashig/2-2",
            "title": "Clinical Data Acquisition Standards Harmonization Implementation Guide for Human Clinical Trials Version 2.2",
            "type": "Implementation Guide"
          },
          "rootItem": {
            "href": "/mdr/root/cdashig/domains/AG/fields/AGOCCUR",
            "title": "AG Occurrence",
            "type": "Root Data Element"
          },
          "sdtmigDatasetMappingTargets": [
            {
              "href": "/mdr/sdtmig/3-3/datasets/AG/variables/AGOCCUR",
              "title": "AG Occurrence",
              "type": "SDTM Dataset Variable"
            }
          ],
          "self": {
            "href": "/mdr/cdashig/2-2/domains/AG/fields/AGOCCUR",
            "title": "AG Occurrence",
            "type": "Data Collection Field"
          }
        },
        "completionInstructions": "Indicate if the procedure agent was administered, by checking Yes or No.",
        "core": "O",
        "definition": "An indication whether the given procedure/assessment agent or group of agents was administered when information about the occurrence of a specific procedure/assessment agent is solicited.",
        "implementationNotes": "AGOCCUR is used to report the occurrence of a pre-specified procedure agent. AGOCCUR is not used for spontaneously free-text reported procedure agent(s). The site should be able to indicate that the response was not asked or answered.",
        "label": "AG Occurrence",
        "mappingInstructions": "Maps directly to the SDTMIG variable listed in the SDTMIG Target column. If the response was not asked or answered, populate the SDTMIG variable AGSTAT with \"NOT DONE\".",
        "name": "AGOCCUR",
        "ordinal": "10",
        "prompt": "[AGTRT]",
        "questionText": "[Has/Was] the subject (been) administered the [procedure/assessment agent]?",
        "simpleDatatype": "Char"
      },
      {
        "_links": {
          "implements": {
            "href": "/mdr/cdash/1-2/classes/Interventions/fields/--DOSE",
            "title": "Dose",
            "type": "Class Variable"
          },
          "parentDomain": {
            "href": "/mdr/cdashig/2-2/domains/AG",
            "title": "Procedure Agents",
            "type": "CDASH Domain"
          },
          "parentProduct": {
            "href": "/mdr/cdashig/2-2",
            "title": "Clinical Data Acquisition Standards Harmonization Implementation Guide for Human Clinical Trials Version 2.2",
            "type": "Implementation Guide"
          },
          "rootItem": {
            "href": "/mdr/root/cdashig/domains/AG/fields/AGDOSE",
            "title": "AG Dose per Administration",
            "type": "Root Data Element"
          },
          "sdtmigDatasetMappingTargets": [
            {
              "href": "/mdr/sdtmig/3-3/datasets/AG/variables/AGDOSE",
              "title": "Dose per Administration",
              "type": "SDTM Dataset Variable"
            }
          ],
          "self": {
            "href": "/mdr/cdashig/2-2/domains/AG/fields/AGDOSE",
            "title": "AG Dose per Administration",
            "type": "Data Collection Field"
          }
        },
        "completionInstructions": "Record the dose of the [procedure agent] taken per administration (e.g., 200).",
        "core": "O",
        "definition": "The dose of procedure/assessment agent (e.g., --TRT ) given at one time represented as a numeric value.",
        "implementationNotes": "Used when the dose/amount administered has only numeric entries. If non-numeric entries are possible, use the CDASH field AGDSTXT.",
        "label": "AG Dose per Administration",
        "mappingInstructions": "Maps directly to the SDTMIG variable listed in the SDTMIG Target column.",
        "name": "AGDOSE",
        "ordinal": "11",
        "prompt": "[Dose/Amount] (per administration)",
        "questionText": "What was the individual dose per administration of the [procedure/assessment agent]?",
        "simpleDatatype": "Num"
      },
      {
        "_links": {
          "implements": {
            "href": "/mdr/cdash/1-2/classes/Interventions/fields/--DSTXT",
            "title": "Dose Description",
            "type": "Class Variable"
          },
          "parentDomain": {
            "href": "/mdr/cdashig/2-2/domains/AG",
            "title": "Procedure Agents",
            "type": "CDASH Domain"
          },
          "parentProduct": {
            "href": "/mdr/cdashig/2-2",
            "title": "Clinical Data Acquisition Standards Harmonization Implementation Guide for Human Clinical Trials Version 2.2",
            "type": "Implementation Guide"
          },
          "rootItem": {
            "href": "/mdr/root/cdashig/domains/AG/fields/AGDSTXT",
            "title": "Procedure Agents Dose Description",
            "type": "Root Data Element"
          },
          "sdtmigDatasetMappingTargets": [
            {
              "href": "/mdr/sdtmig/3-3/datasets/AG/variables/AGDOSE",
              "title": "Dose per Administration",
              "type": "SDTM Dataset Variable"
            },
            {
              "href": "/mdr/sdtmig/3-3/datasets/AG/variables/AGDOSTXT",
              "title": "Dose Description",
              "type": "SDTM Dataset Variable"
            }
          ],
          "self": {
            "href": "/mdr/cdashig/2-2/domains/AG/fields/AGDSTXT",
            "title": "Procedure Agents Dose Description",
            "type": "Data Collection Field"
          }
        },
        "completionInstructions": "Record the dose of [procedure agent] taken per administration (e.g., 200).",
        "core": "O",
        "definition": "The dose of procedure/assessment agent administered per instance.",
        "implementationNotes": "Defining this data collection field as a dose text field allows for flexibility in capturing dose entries as numbers, text or ranges. The data collected in this dose text-format field should be separated or mapped to either SDTMIG AGDOSE (if numeric) or AGDOSTXT (if text).",
        "label": "Procedure Agents Dose Description",
        "mappingInstructions": "This does not map directly to an SDTMIG variable. Numeric values map to AGDOSE in SDTM. Non-numeric values (e.g., 200-400) map to AGDOSTXT in SDTM.",
        "name": "AGDSTXT",
        "ordinal": "12",
        "prompt": "Dose",
        "questionText": "What was the individual dose of the [procedure/assessment agent]?",
        "simpleDatatype": "Char"
      },
      {
        "_links": {
          "codelist": [
            {
              "href": "/mdr/root/ct/sdtmct/codelists/C71620",
              "title": "Version-agnostic anchor resource for codelist C71620",
              "type": "Root Value Domain"
            },
            {
              "href": "/mdr/root/ct/cdashct/codelists/C78417",
              "title": "Version-agnostic anchor resource for codelist C78417",
              "type": "Root Value Domain"
            }
          ],
          "implements": {
            "href": "/mdr/cdash/1-2/classes/Interventions/fields/--DOSU",
            "title": "Dose Units",
            "type": "Class Variable"
          },
          "parentDomain": {
            "href": "/mdr/cdashig/2-2/domains/AG",
            "title": "Procedure Agents",
            "type": "CDASH Domain"
          },
          "parentProduct": {
            "href": "/mdr/cdashig/2-2",
            "title": "Clinical Data Acquisition Standards Harmonization Implementation Guide for Human Clinical Trials Version 2.2",
            "type": "Implementation Guide"
          },
          "rootItem": {
            "href": "/mdr/root/cdashig/domains/AG/fields/AGDOSU",
            "title": "AG Dose Units",
            "type": "Root Data Element"
          },
          "sdtmigDatasetMappingTargets": [
            {
              "href": "/mdr/sdtmig/3-3/datasets/AG/variables/AGDOSU",
              "title": "Dose Units",
              "type": "SDTM Dataset Variable"
            }
          ],
          "self": {
            "href": "/mdr/cdashig/2-2/domains/AG/fields/AGDOSU",
            "title": "AG Dose Units",
            "type": "Data Collection Field"
          }
        },
        "completionInstructions": "Record the dose unit of the [procedure agent] administered (e.g., mg).",
        "core": "R/C",
        "definition": "The unit associated with the procedure/assessment agent.",
        "implementationNotes": "When sponsors collect data for amount of dose administered (i.e., Dose, Total Daily Dose), the unit must be collected as well (if applicable).",
        "label": "AG Dose Units",
        "mappingInstructions": "Maps directly to the SDTMIG variable listed in the SDTMIG Target column.",
        "name": "AGDOSU",
        "ordinal": "13",
        "prompt": "(Dose) Unit",
        "questionText": "What is the unit (for the dose of the [procedure/assessment agent])?",
        "simpleDatatype": "Char"
      },
      {
        "_links": {
          "codelist": [
            {
              "href": "/mdr/root/ct/sdtmct/codelists/C66726",
              "title": "Version-agnostic anchor resource for codelist C66726",
              "type": "Root Value Domain"
            },
            {
              "href": "/mdr/root/ct/cdashct/codelists/C78418",
              "title": "Version-agnostic anchor resource for codelist C78418",
              "type": "Root Value Domain"
            }
          ],
          "implements": {
            "href": "/mdr/cdash/1-2/classes/Interventions/fields/--DOSFRM",
            "title": "Dose Form",
            "type": "Class Variable"
          },
          "parentDomain": {
            "href": "/mdr/cdashig/2-2/domains/AG",
            "title": "Procedure Agents",
            "type": "CDASH Domain"
          },
          "parentProduct": {
            "href": "/mdr/cdashig/2-2",
            "title": "Clinical Data Acquisition Standards Harmonization Implementation Guide for Human Clinical Trials Version 2.2",
            "type": "Implementation Guide"
          },
          "rootItem": {
            "href": "/mdr/root/cdashig/domains/AG/fields/AGDOSFRM",
            "title": "AG Dose Form",
            "type": "Root Data Element"
          },
          "sdtmigDatasetMappingTargets": [
            {
              "href": "/mdr/sdtmig/3-3/datasets/AG/variables/AGDOSFRM",
              "title": "Dose Form",
              "type": "SDTM Dataset Variable"
            }
          ],
          "self": {
            "href": "/mdr/cdashig/2-2/domains/AG/fields/AGDOSFRM",
            "title": "AG Dose Form",
            "type": "Data Collection Field"
          }
        },
        "completionInstructions": "Record the pharmaceutical dosage form (e.g., TABLET CAPSULE SYRUP) for the [procedure agent] [administered].",
        "core": "O",
        "definition": "The pharmaceutical dosage form in which the AGTRT is physically presented.",
        "implementationNotes": "Some drugs have multiple forms and this field may be needed to code the drug to an ATC level. However, in general, this level of detail should not be necessary except for procedure agents of interest.",
        "label": "AG Dose Form",
        "mappingInstructions": "Maps directly to the SDTMIG variable listed in the SDTMIG Target column.",
        "name": "AGDOSFRM",
        "ordinal": "14",
        "prompt": "Dose Form",
        "questionText": "What was the dose form of the [procedure/assessment agent]?",
        "simpleDatatype": "Char"
      },
      {
        "_links": {
          "codelist": [
            {
              "href": "/mdr/root/ct/sdtmct/codelists/C71113",
              "title": "Version-agnostic anchor resource for codelist C71113",
              "type": "Root Value Domain"
            },
            {
              "href": "/mdr/root/ct/cdashct/codelists/C78419",
              "title": "Version-agnostic anchor resource for codelist C78419",
              "type": "Root Value Domain"
            }
          ],
          "implements": {
            "href": "/mdr/cdash/1-2/classes/Interventions/fields/--DOSFRQ",
            "title": "Dosing Frequency per Interval",
            "type": "Class Variable"
          },
          "parentDomain": {
            "href": "/mdr/cdashig/2-2/domains/AG",
            "title": "Procedure Agents",
            "type": "CDASH Domain"
          },
          "parentProduct": {
            "href": "/mdr/cdashig/2-2",
            "title": "Clinical Data Acquisition Standards Harmonization Implementation Guide for Human Clinical Trials Version 2.2",
            "type": "Implementation Guide"
          },
          "rootItem": {
            "href": "/mdr/root/cdashig/domains/AG/fields/AGDOSFRQ",
            "title": "AG Dosing Frequency per Interval",
            "type": "Root Data Element"
          },
          "sdtmigDatasetMappingTargets": [
            {
              "href": "/mdr/sdtmig/3-3/datasets/AG/variables/AGDOSFRQ",
              "title": "Dosing Frequency per Interval",
              "type": "SDTM Dataset Variable"
            }
          ],
          "self": {
            "href": "/mdr/cdashig/2-2/domains/AG/fields/AGDOSFRQ",
            "title": "AG Dosing Frequency per Interval",
            "type": "Data Collection Field"
          }
        },
        "completionInstructions": "Record how often the [procedure agent] was administered (e.g., ONCE).",
        "core": "O",
        "definition": "The number of doses administered during a specific interval.",
        "implementationNotes": "The frequency of the procedure agent. When collected, the recommendation is to collect dosing information in separate fields (e.g., AGDOSE, AGDOSEU, AGDOSFRQ) for specific and consistent data collection and to enable programmatically utilizing these data.",
        "label": "AG Dosing Frequency per Interval",
        "mappingInstructions": "Maps directly to the SDTMIG variable listed in the SDTMIG Target column.",
        "name": "AGDOSFRQ",
        "ordinal": "15",
        "prompt": "Frequency",
        "questionText": "What was the frequency of the [procedure/assessment agent]?",
        "simpleDatatype": "Char"
      },
      {
        "_links": {
          "codelist": [
            {
              "href": "/mdr/root/ct/sdtmct/codelists/C66729",
              "title": "Version-agnostic anchor resource for codelist C66729",
              "type": "Root Value Domain"
            },
            {
              "href": "/mdr/root/ct/cdashct/codelists/C78420",
              "title": "Version-agnostic anchor resource for codelist C78420",
              "type": "Root Value Domain"
            }
          ],
          "implements": {
            "href": "/mdr/cdash/1-2/classes/Interventions/fields/--ROUTE",
            "title": "Route of Administration",
            "type": "Class Variable"
          },
          "parentDomain": {
            "href": "/mdr/cdashig/2-2/domains/AG",
            "title": "Procedure Agents",
            "type": "CDASH Domain"
          },
          "parentProduct": {
            "href": "/mdr/cdashig/2-2",
            "title": "Clinical Data Acquisition Standards Harmonization Implementation Guide for Human Clinical Trials Version 2.2",
            "type": "Implementation Guide"
          },
          "rootItem": {
            "href": "/mdr/root/cdashig/domains/AG/fields/AGROUTE",
            "title": "AG Route of Administration",
            "type": "Root Data Element"
          },
          "sdtmigDatasetMappingTargets": [
            {
              "href": "/mdr/sdtmig/3-3/datasets/AG/variables/AGROUTE",
              "title": "Route of Administration",
              "type": "SDTM Dataset Variable"
            }
          ],
          "self": {
            "href": "/mdr/cdashig/2-2/domains/AG/fields/AGROUTE",
            "title": "AG Route of Administration",
            "type": "Data Collection Field"
          }
        },
        "completionInstructions": "Provide the route of administration for the [procedure agent].",
        "core": "R/C",
        "definition": "The route of administration of the procedure/assessment agent.",
        "implementationNotes": "This additional information may be important to collect on the CRF when the sponsor wants to capture a procedure agent's route of administration, for purposes such as coding, and the procedure agent may have more than 1 route. Some companies may use route in coding procedure agents to be able to choose a precise preferred name and ATC code.",
        "label": "AG Route of Administration",
        "mappingInstructions": "Maps directly to the SDTMIG variable listed in the SDTMIG Target column.",
        "name": "AGROUTE",
        "ordinal": "16",
        "prompt": "Route",
        "questionText": "What was the route of administration of the [procedure/assessment agent]?",
        "simpleDatatype": "Char"
      },
      {
        "_links": {
          "implements": {
            "href": "/mdr/cdash/1-2/classes/Timing/fields/--STDAT",
            "title": "Observation Start Date",
            "type": "Class Variable"
          },
          "parentDomain": {
            "href": "/mdr/cdashig/2-2/domains/AG",
            "title": "Procedure Agents",
            "type": "CDASH Domain"
          },
          "parentProduct": {
            "href": "/mdr/cdashig/2-2",
            "title": "Clinical Data Acquisition Standards Harmonization Implementation Guide for Human Clinical Trials Version 2.2",
            "type": "Implementation Guide"
          },
          "rootItem": {
            "href": "/mdr/root/cdashig/domains/AG/fields/AGSTDAT",
            "title": "Procedure Agent Start Date",
            "type": "Root Data Element"
          },
          "sdtmigDatasetMappingTargets": [
            {
              "href": "/mdr/sdtmig/3-3/datasets/AG/variables/AGSTDTC",
              "title": "Start Date/Time of Agent",
              "type": "SDTM Dataset Variable"
            }
          ],
          "self": {
            "href": "/mdr/cdashig/2-2/domains/AG/fields/AGSTDAT",
            "title": "Procedure Agent Start Date",
            "type": "Data Collection Field"
          }
        },
        "completionInstructions": "Record the date the procedure agent was first administered using this format (DD-MON-YYYY). Procedure agent(s) administered during the study are expected to have a complete start date.",
        "core": "R/C",
        "definition": "The start date when the procedure/assessment agent was first administered, represented in an unambiguous date format (e.g., DD-MON-YYYY).",
        "implementationNotes": "The assumption is that sponsors should either have a start date or will indicate that the procedure agent was started before, during or after the study period. The preferred method is to collect a complete start date. Partial dates (e.g., providing year only) for procedure agent started a considerable amount of time prior to the start of study are acceptable.",
        "label": "Procedure Agent Start Date",
        "mappingInstructions": "This does not map directly to an SDTMIG variable. For the SDTM submission dataset, concatenate all collected CDASH START DATE and TIME components and populate the SDTMIG variable AGSTDTC in ISO 8601 format.",
        "name": "AGSTDAT",
        "ordinal": "17",
        "prompt": "Start Date",
        "questionText": "What was the procedure/assessment agent] start date?",
        "simpleDatatype": "Char"
      },
      {
        "_links": {
          "implements": {
            "href": "/mdr/cdash/1-2/classes/Timing/fields/--STTIM",
            "title": "Observation Start Time",
            "type": "Class Variable"
          },
          "parentDomain": {
            "href": "/mdr/cdashig/2-2/domains/AG",
            "title": "Procedure Agents",
            "type": "CDASH Domain"
          },
          "parentProduct": {
            "href": "/mdr/cdashig/2-2",
            "title": "Clinical Data Acquisition Standards Harmonization Implementation Guide for Human Clinical Trials Version 2.2",
            "type": "Implementation Guide"
          },
          "rootItem": {
            "href": "/mdr/root/cdashig/domains/AG/fields/AGSTTIM",
            "title": "Procedure Agent Start Time",
            "type": "Root Data Element"
          },
          "sdtmigDatasetMappingTargets": [
            {
              "href": "/mdr/sdtmig/3-3/datasets/AG/variables/AGSTDTC",
              "title": "Start Date/Time of Agent",
              "type": "SDTM Dataset Variable"
            }
          ],
          "self": {
            "href": "/mdr/cdashig/2-2/domains/AG/fields/AGSTTIM",
            "title": "Procedure Agent Start Time",
            "type": "Data Collection Field"
          }
        },
        "completionInstructions": "Record the time (as complete as possible) that the [procedure agent] was started.",
        "core": "R/C",
        "definition": "The time the procedure/assessment agent was started, represented in an ambiguous time format (e.g., h:mm:ss).",
        "implementationNotes": "Recommend collecting the time a procedure agent was started only when a protocol or data collection scenarios supports it. Typically, a start time is not collected unless the subject is under the direct care of the site at the time a procedure agent administered or the subject records the start time in a diary. See Mapping Relative Times from Collection to Submissions, and the SDTMIG for more information.",
        "label": "Procedure Agent Start Time",
        "mappingInstructions": "This does not map directly to an SDTMIG variable. For the SDTM submission dataset, concatenate all collected CDASH START DATE and TIME components and populate the SDTMIG variable AGSTDTC in ISO 8601 format.",
        "name": "AGSTTIM",
        "ordinal": "18",
        "prompt": "Start Time",
        "questionText": "What was the [procedure/assessment agent] start time?",
        "simpleDatatype": "Char"
      },
      {
        "_links": {
          "codelist": [
            {
              "href": "/mdr/root/ct/sdtmct/codelists/C66742",
              "title": "Version-agnostic anchor resource for codelist C66742",
              "type": "Root Value Domain"
            }
          ],
          "implements": {
            "href": "/mdr/cdash/1-2/classes/Timing/fields/--PRIOR",
            "title": "Prior",
            "type": "Class Variable"
          },
          "parentDomain": {
            "href": "/mdr/cdashig/2-2/domains/AG",
            "title": "Procedure Agents",
            "type": "CDASH Domain"
          },
          "parentProduct": {
            "href": "/mdr/cdashig/2-2",
            "title": "Clinical Data Acquisition Standards Harmonization Implementation Guide for Human Clinical Trials Version 2.2",
            "type": "Implementation Guide"
          },
          "rootItem": {
            "href": "/mdr/root/cdashig/domains/AG/fields/AGPRIOR",
            "title": "Prior Procedure Agents",
            "type": "Root Data Element"
          },
          "sdtmigDatasetMappingTargets": [
            {
              "href": "/mdr/sdtmig/3-3/datasets/AG/variables/AGSTRF",
              "title": "Start Relative to Reference Period",
              "type": "SDTM Dataset Variable"
            },
            {
              "href": "/mdr/sdtmig/3-3/datasets/AG/variables/AGSTRTPT",
              "title": "Start Relative to Reference Time Point",
              "type": "SDTM Dataset Variable"
            }
          ],
          "self": {
            "href": "/mdr/cdashig/2-2/domains/AG/fields/AGPRIOR",
            "title": "Prior Procedure Agents",
            "type": "Data Collection Field"
          }
        },
        "completionInstructions": "Check if the [procedure agent] was started before the study.",
        "core": "O",
        "definition": "Indication the procedure/assessment agent was administered prior to [AGSTTPT] or prior to the date in DM.RFSTDTC.",
        "implementationNotes": "Sponsors may collect this information rather than start dates. See Mapping Relative Times from Collection to Submissions, and the SDTMIG for more information.",
        "label": "Prior Procedure Agents",
        "mappingInstructions": "This does not map directly to an SDTMIG variable. May be used to populate a value into an SDTMIG relative timing variable such as AGSTRF or AGSTRTPT. When populating AGSTRF or AGSTRTPT, if the value of the CDASH field AGPRIOR is \"Y\", a value from the CDISC CT (STENRF) may be used. When AGPRIOR refers to the Study Reference Period (defined in DM.RFSTDTC to DM.RFENDTC), the SDTMIG variable AGSTRF should be populated. When AGPRIOR is compared to another time point, the SDTMIG variables AGSTRTPT and AGSTTPT should be used. Note: AGSTRTPT must be in reference to the time-point anchor described in AGSTTPT.",
        "name": "AGPRIOR",
        "ordinal": "19",
        "prompt": "Prior to [AGSTTPT]; prior to study",
        "questionText": "Was the [procedure/assessment agent] administered prior to AGSTTPT? Was the procedure/assessment agent given prior to study start?",
        "simpleDatatype": "Char"
      },
      {
        "_links": {
          "codelist": [
            {
              "href": "/mdr/root/ct/sdtmct/codelists/C66742",
              "title": "Version-agnostic anchor resource for codelist C66742",
              "type": "Root Value Domain"
            }
          ],
          "implements": {
            "href": "/mdr/cdash/1-2/classes/Interventions/fields/--ONGO",
            "title": "Ongoing Intervention",
            "type": "Class Variable"
          },
          "parentDomain": {
            "href": "/mdr/cdashig/2-2/domains/AG",
            "title": "Procedure Agents",
            "type": "CDASH Domain"
          },
          "parentProduct": {
            "href": "/mdr/cdashig/2-2",
            "title": "Clinical Data Acquisition Standards Harmonization Implementation Guide for Human Clinical Trials Version 2.2",
            "type": "Implementation Guide"
          },
          "rootItem": {
            "href": "/mdr/root/cdashig/domains/AG/fields/AGONGO",
            "title": "Ongoing Procedure Agents",
            "type": "Root Data Element"
          },
          "sdtmigDatasetMappingTargets": [
            {
              "href": "/mdr/sdtmig/3-3/datasets/AG/variables/AGENRF",
              "title": "End Relative to Reference Period",
              "type": "SDTM Dataset Variable"
            },
            {
              "href": "/mdr/sdtmig/3-3/datasets/AG/variables/AGENRTPT",
              "title": "End Relative to Reference Time Point",
              "type": "SDTM Dataset Variable"
            }
          ],
          "self": {
            "href": "/mdr/cdashig/2-2/domains/AG/fields/AGONGO",
            "title": "Ongoing Procedure Agents",
            "type": "Data Collection Field"
          }
        },
        "completionInstructions": "Record the [procedure agent] as ongoing if the subject has not stopped taking the procedure agent at [the time point defined by the study]. If the procedure agent is ongoing, the end date should be left blank.",
        "core": "R/C",
        "definition": "Indication the procedure/assessment agent is ongoing when no end date is provided.",
        "implementationNotes": "This box should be checked to indicate that theprocedure agent has not stopped at the time of data collection. It is expected that every recorded procedure agent should have either an end date or be checked as ongoing, but not both. However, in cases where ongoing procedure agents are not permitted, it may not be necessary to include an Ongoing field in the CRF. See Mapping Relative Times from Collection to Submission, for more information about collecting relative date/time; see the SDTMIG for information about mapping relative times.",
        "label": "Ongoing Procedure Agents",
        "mappingInstructions": "This does not map directly to an SDTMIG variable. May be used to populate a value into an SDTMIG relative timing variable such as AGENRF or AGENRTPT. When populating AGENRF, if the value of AGONGO is \"Y\", the values of \"DURING\", \"AFTER\" or \"DURING/AFTER\" may be used. When populating AGENRTPT, if the value of AGONGO is \"Y\", the value of \"ONGOING\" may be used. When AGONGO refers to the Study Reference Period (defined in DM.RFSTDTC to DM.RFENDTC), the SDTMIG variable AGENRF should be populated. When AGONGO is used in conjunction with another time point, the SDTMIG variables AGENRTPT and AGENTPT should be used. Note: AGENRTPT must be in reference to the time-point anchor described in AGENTPT.",
        "name": "AGONGO",
        "ordinal": "20",
        "prompt": "Ongoing (as of [the study-specific time point or period])",
        "questionText": "Was the [procedure/assessment agent] ongoing (as of the [study-specific time point or period])?",
        "simpleDatatype": "Char"
      },
      {
        "_links": {
          "implements": {
            "href": "/mdr/cdash/1-2/classes/Timing/fields/--ENDAT",
            "title": "Observation End Date",
            "type": "Class Variable"
          },
          "parentDomain": {
            "href": "/mdr/cdashig/2-2/domains/AG",
            "title": "Procedure Agents",
            "type": "CDASH Domain"
          },
          "parentProduct": {
            "href": "/mdr/cdashig/2-2",
            "title": "Clinical Data Acquisition Standards Harmonization Implementation Guide for Human Clinical Trials Version 2.2",
            "type": "Implementation Guide"
          },
          "rootItem": {
            "href": "/mdr/root/cdashig/domains/AG/fields/AGENDAT",
            "title": "Procedure Agents End Date",
            "type": "Root Data Element"
          },
          "sdtmigDatasetMappingTargets": [
            {
              "href": "/mdr/sdtmig/3-3/datasets/AG/variables/AGENDTC",
              "title": "End Date/Time of Agent",
              "type": "SDTM Dataset Variable"
            }
          ],
          "self": {
            "href": "/mdr/cdashig/2-2/domains/AG/fields/AGENDAT",
            "title": "Procedure Agents End Date",
            "type": "Data Collection Field"
          }
        },
        "completionInstructions": "Record the date the procedure agent was topped using this format (DD-MM-YYYY). If the subject has not stopped [administering/being administered] the procedure agent leave this field blank.",
        "core": "R/C",
        "definition": "The date the procedure/assessment agent was stopped/ended, represented in an unambiguous date format (e.g. DD-MON-YYYY).",
        "implementationNotes": "The assumption is that sponsors should either have an end date or will indicate that the procedure agent was ongoing at the time of collection or at the end of the study. However, in cases where the end date can be determined from dates collected elsewhere in the CRF it is not necessary to include an end date in the CRF. For example, if all procedure agents are administered only once during a trial, the end date will be the same as the start date.",
        "label": "Procedure Agents End Date",
        "mappingInstructions": "This does not map directly to an SDTMIG variable. For the SDTM submission dataset, concatenate all collected CDASH END DATE and TIME components and populate the SDTMIG variable CMENDTC in ISO 8601 format.",
        "name": "AGENDAT",
        "ordinal": "21",
        "prompt": "End Date",
        "questionText": "What was the [procedure/assessment agent's] end date?",
        "simpleDatatype": "Char"
      },
      {
        "_links": {
          "implements": {
            "href": "/mdr/cdash/1-2/classes/Timing/fields/--ENTIM",
            "title": "Observation End Time",
            "type": "Class Variable"
          },
          "parentDomain": {
            "href": "/mdr/cdashig/2-2/domains/AG",
            "title": "Procedure Agents",
            "type": "CDASH Domain"
          },
          "parentProduct": {
            "href": "/mdr/cdashig/2-2",
            "title": "Clinical Data Acquisition Standards Harmonization Implementation Guide for Human Clinical Trials Version 2.2",
            "type": "Implementation Guide"
          },
          "rootItem": {
            "href": "/mdr/root/cdashig/domains/AG/fields/AGENTIM",
            "title": "Procedure Agents End Time",
            "type": "Root Data Element"
          },
          "sdtmigDatasetMappingTargets": [
            {
              "href": "/mdr/sdtmig/3-3/datasets/AG/variables/AGENDTC",
              "title": "End Date/Time of Agent",
              "type": "SDTM Dataset Variable"
            }
          ],
          "self": {
            "href": "/mdr/cdashig/2-2/domains/AG/fields/AGENTIM",
            "title": "Procedure Agents End Time",
            "type": "Data Collection Field"
          }
        },
        "completionInstructions": "Record the time (as complete as possible) that the procedure agent was stopped.",
        "core": "R/C",
        "definition": "The time the concomitant medication/treatment/therapy was started, represented in an unambiguous time format (e.g., hh:mm:ss).",
        "implementationNotes": "Recommend collecting the time a procedure agent was ended only when a protocol or data collection scenarios require it or the subject records the end time in a diary. Typically, an end time is not collected unless the subject is under the direct care of the site at the time a procedure agent is stopped.",
        "label": "Procedure Agents End Time",
        "mappingInstructions": "This does not map directly to an SDTMIG variable. For the SDTM submission dataset, concatenate all collected CDASH END DATE and TIME components and populate the SDTMIG variable AGENDTC in ISO 8601 format.",
        "name": "AGENTIM",
        "ordinal": "22",
        "prompt": "End Time",
        "questionText": "What was the [procedure/assessment agent's] end time?",
        "simpleDatatype": "Char"
      },
      {
        "_links": {
          "implements": {
            "href": "/mdr/cdash/1-2/classes/Interventions/fields/--DECOD",
            "title": "Standardized Treatment Name",
            "type": "Class Variable"
          },
          "parentDomain": {
            "href": "/mdr/cdashig/2-2/domains/AG",
            "title": "Procedure Agents",
            "type": "CDASH Domain"
          },
          "parentProduct": {
            "href": "/mdr/cdashig/2-2",
            "title": "Clinical Data Acquisition Standards Harmonization Implementation Guide for Human Clinical Trials Version 2.2",
            "type": "Implementation Guide"
          },
          "rootItem": {
            "href": "/mdr/root/cdashig/domains/AG/fields/AGDECOD",
            "title": "Standardized Agent Name",
            "type": "Root Data Element"
          },
          "sdtmigDatasetMappingTargets": [
            {
              "href": "/mdr/sdtmig/3-3/datasets/AG/variables/AGDECOD",
              "title": "Standardized Agent Name",
              "type": "SDTM Dataset Variable"
            }
          ],
          "self": {
            "href": "/mdr/cdashig/2-2/domains/AG/fields/AGDECOD",
            "title": "Standardized Agent Name",
            "type": "Data Collection Field"
          }
        },
        "core": "O",
        "definition": "The dictionary or sponsor-defined standardized text description of the topic variable (AGTRT) or the modified topic variable (AGMODIFY), if applicable.",
        "implementationNotes": "This is typically not a data collection field that will appear on the CRF. If the sponsor chooses to code the procedure, the sponsor will populate this through the coding process. If PRPRESP is used, and the information about a specific standardized procedure name is being solicited, the data from AGTRT may map directly to the SDTMIG AGDECOD variable.",
        "label": "Standardized Agent Name",
        "mappingInstructions": "Maps directly to the SDTMIG variable listed in the SDTMIG Target column.",
        "name": "AGDECOD",
        "ordinal": "23",
        "simpleDatatype": "Char"
      },
      {
        "_links": {
          "implements": {
            "href": "/mdr/cdash/1-2/classes/Interventions/fields/--CLAS",
            "title": "Class",
            "type": "Class Variable"
          },
          "parentDomain": {
            "href": "/mdr/cdashig/2-2/domains/AG",
            "title": "Procedure Agents",
            "type": "CDASH Domain"
          },
          "parentProduct": {
            "href": "/mdr/cdashig/2-2",
            "title": "Clinical Data Acquisition Standards Harmonization Implementation Guide for Human Clinical Trials Version 2.2",
            "type": "Implementation Guide"
          },
          "rootItem": {
            "href": "/mdr/root/cdashig/domains/AG/fields/AGCLAS",
            "title": "AG Agent Class",
            "type": "Root Data Element"
          },
          "sdtmigDatasetMappingTargets": [
            {
              "href": "/mdr/sdtmig/3-3/datasets/AG/variables/AGCLAS",
              "title": "Agent Class",
              "type": "SDTM Dataset Variable"
            }
          ],
          "self": {
            "href": "/mdr/cdashig/2-2/domains/AG/fields/AGCLAS",
            "title": "AG Agent Class",
            "type": "Data Collection Field"
          }
        },
        "core": "O",
        "definition": "The class for the agent, often obtained from a coding dictionary.",
        "implementationNotes": "This field does not typically appear on the CRF. Sponsors will populate this through the coding process. This would generally be the class used for analysis.",
        "label": "AG Agent Class",
        "mappingInstructions": "Maps directly to the SDTMIG variable listed in the SDTMIG Target column.",
        "name": "AGCLAS",
        "ordinal": "24",
        "simpleDatatype": "Char"
      },
      {
        "_links": {
          "implements": {
            "href": "/mdr/cdash/1-2/classes/Interventions/fields/--CLASCD",
            "title": "Class Code",
            "type": "Class Variable"
          },
          "parentDomain": {
            "href": "/mdr/cdashig/2-2/domains/AG",
            "title": "Procedure Agents",
            "type": "CDASH Domain"
          },
          "parentProduct": {
            "href": "/mdr/cdashig/2-2",
            "title": "Clinical Data Acquisition Standards Harmonization Implementation Guide for Human Clinical Trials Version 2.2",
            "type": "Implementation Guide"
          },
          "rootItem": {
            "href": "/mdr/root/cdashig/domains/AG/fields/AGCLASCD",
            "title": "AG Agent Class Code",
            "type": "Root Data Element"
          },
          "sdtmigDatasetMappingTargets": [
            {
              "href": "/mdr/sdtmig/3-3/datasets/AG/variables/AGCLASCD",
              "title": "Agent Class Code",
              "type": "SDTM Dataset Variable"
            }
          ],
          "self": {
            "href": "/mdr/cdashig/2-2/domains/AG/fields/AGCLASCD",
            "title": "AG Agent Class Code",
            "type": "Data Collection Field"
          }
        },
        "core": "O",
        "definition": "The assigned dictionary code for the class of agent.",
        "implementationNotes": "This field does not typically appear on the CRF. Sponsors will populate this through the coding process. This would generally be the class code used for analysis.",
        "label": "AG Agent Class Code",
        "mappingInstructions": "Maps directly to the SDTMIG variable listed in the SDTMIG Target column.",
        "name": "AGCLASCD",
        "ordinal": "25",
        "simpleDatatype": "Num"
      }
    ],
    "label": "Procedure Agents",
    "name": "AG",
    "ordinal": "2",
    "_domainCode": "AG",
    "_title": "Procedure Agents"
  },
  {
    "_links": {
      "parentClass": {
        "href": "/mdr/cdashig/2-2/classes/Interventions",
        "title": "Interventions",
        "type": "Class"
      },
      "parentProduct": {
        "href": "/mdr/cdashig/2-2",
        "title": "Clinical Data Acquisition Standards Harmonization Implementation Guide for Human Clinical Trials Version 2.2",
        "type": "Implementation Guide"
      },
      "priorVersion": {
        "href": "/mdr/cdashig/2-1/domains/CM",
        "title": "Concomitant Medications",
        "type": "CDASH Domain"
      },
      "self": {
        "href": "/mdr/cdashig/2-2/domains/CM",
        "title": "Concomitant/Prior Medications",
        "type": "CDASH Domain"
      }
    },
    "description": "An interventions domain that contains concomitant and prior medications used by the subject, such as those given on an as needed basis or condition-appropriate medications. (Source: CDISC Controlled Terminology, DOMAIN, C49568, 2021-06-25)",
    "fields": [
      {
        "_links": {
          "implements": {
            "href": "/mdr/cdash/1-2/classes/Identifiers/fields/STUDYID",
            "title": "Study Identifier",
            "type": "Class Variable"
          },
          "parentDomain": {
            "href": "/mdr/cdashig/2-2/domains/CM",
            "title": "Concomitant/Prior Medications",
            "type": "CDASH Domain"
          },
          "parentProduct": {
            "href": "/mdr/cdashig/2-2",
            "title": "Clinical Data Acquisition Standards Harmonization Implementation Guide for Human Clinical Trials Version 2.2",
            "type": "Implementation Guide"
          },
          "priorVersion": {
            "href": "/mdr/cdashig/2-1/domains/CM/fields/STUDYID",
            "title": "Study Identifier",
            "type": "Data Collection Field"
          },
          "rootItem": {
            "href": "/mdr/root/cdashig/domains/CM/fields/STUDYID",
            "title": "Study Identifier",
            "type": "Root Data Element"
          },
          "sdtmigDatasetMappingTargets": [
            {
              "href": "/mdr/sdtmig/3-3/datasets/CM/variables/STUDYID",
              "title": "Study Identifier",
              "type": "SDTM Dataset Variable"
            }
          ],
          "self": {
            "href": "/mdr/cdashig/2-2/domains/CM/fields/STUDYID",
            "title": "Study Identifier",
            "type": "Data Collection Field"
          }
        },
        "core": "HR",
        "definition": "A unique identifier for a study.",
        "implementationNotes": "Although this field is not typically captured on a CRF, it should be displayed clearly on the CRF and/or the EDC system. This field can be included into the database or populated during SDTM-based dataset creation before submission.",
        "label": "Study Identifier",
        "mappingInstructions": "Maps directly to the SDTMIG variable listed in the SDTMIG Target column.",
        "name": "STUDYID",
        "ordinal": "1",
        "prompt": "[Protocol/Study]",
        "questionText": "What is the study identifier?",
        "simpleDatatype": "Char"
      },
      {
        "_links": {
          "implements": {
            "href": "/mdr/cdash/1-2/classes/Identifiers/fields/SITEID",
            "title": "Study Site Identifier",
            "type": "Class Variable"
          },
          "parentDomain": {
            "href": "/mdr/cdashig/2-2/domains/CM",
            "title": "Concomitant/Prior Medications",
            "type": "CDASH Domain"
          },
          "parentProduct": {
            "href": "/mdr/cdashig/2-2",
            "title": "Clinical Data Acquisition Standards Harmonization Implementation Guide for Human Clinical Trials Version 2.2",
            "type": "Implementation Guide"
          },
          "priorVersion": {
            "href": "/mdr/cdashig/2-1/domains/CM/fields/SITEID",
            "title": "Study Site Identifier",
            "type": "Data Collection Field"
          },
          "rootItem": {
            "href": "/mdr/root/cdashig/domains/CM/fields/SITEID",
            "title": "Study Site Identifier",
            "type": "Root Data Element"
          },
          "sdtmigDatasetMappingTargets": [
            {
              "href": "/mdr/sdtmig/3-3/datasets/DM/variables/SITEID",
              "title": "Study Site Identifier",
              "type": "SDTM Dataset Variable"
            }
          ],
          "self": {
            "href": "/mdr/cdashig/2-2/domains/CM/fields/SITEID",
            "title": "Study Site Identifier",
            "type": "Data Collection Field"
          }
        },
        "core": "HR",
        "definition": "A unique identifier for a site within a study.",
        "implementationNotes": "Paper: For single-site studies, this is typically pre-printed in the header of each CRF page. For studies with multiple sites, this field may be left blank so that the number can be recorded by the site, or it may be pre-printed on CRFs that are shipped to each site. \\n EDC: This should be pre-populated.",
        "label": "Study Site Identifier",
        "mappingInstructions": "Maps directly to the SDTMIG variable listed in the SDTMIG Target column.",
        "name": "SITEID",
        "ordinal": "2",
        "prompt": "Site (Identifier)",
        "questionText": "What is the site identifier?",
        "simpleDatatype": "Char"
      },
      {
        "_links": {
          "implements": {
            "href": "/mdr/cdash/1-2/classes/Identifiers/fields/SUBJID",
            "title": "Subject Identifier for the Study",
            "type": "Class Variable"
          },
          "parentDomain": {
            "href": "/mdr/cdashig/2-2/domains/CM",
            "title": "Concomitant/Prior Medications",
            "type": "CDASH Domain"
          },
          "parentProduct": {
            "href": "/mdr/cdashig/2-2",
            "title": "Clinical Data Acquisition Standards Harmonization Implementation Guide for Human Clinical Trials Version 2.2",
            "type": "Implementation Guide"
          },
          "priorVersion": {
            "href": "/mdr/cdashig/2-1/domains/CM/fields/SUBJID",
            "title": "Subject Identifier for the Study",
            "type": "Data Collection Field"
          },
          "rootItem": {
            "href": "/mdr/root/cdashig/domains/CM/fields/SUBJID",
            "title": "Subject Identifier for the Study",
            "type": "Root Data Element"
          },
          "sdtmigDatasetMappingTargets": [
            {
              "href": "/mdr/sdtmig/3-3/datasets/DM/variables/SUBJID",
              "title": "Subject Identifier for the Study",
              "type": "SDTM Dataset Variable"
            }
          ],
          "self": {
            "href": "/mdr/cdashig/2-2/domains/CM/fields/SUBJID",
            "title": "Subject Identifier for the Study",
            "type": "Data Collection Field"
          }
        },
        "completionInstructions": "Record the identifier for the subject.",
        "core": "HR",
        "definition": "A unique subject identifier within a site and a study.",
        "implementationNotes": "Paper: This is typically recorded in the header of each CRF page. \\n EDC: The subject identifiers may be system-generated. \\n This CDASH variable is typically collected in all CDASH domains. However, this CDASH variable is populated only in the SDTMIG DM domain. For more information, refer to the SDTMIG.",
        "label": "Subject Identifier for the Study",
        "mappingInstructions": "Maps directly to the SDTMIG variable listed in the SDTMIG Target column.",
        "name": "SUBJID",
        "ordinal": "3",
        "prompt": "[Subject/Participant] (Identifier)",
        "questionText": "What [is/was] the (study) [subject/participant] identifier?",
        "simpleDatatype": "Char"
      },
      {
        "_links": {
          "implements": {
            "href": "/mdr/cdash/1-2/classes/Interventions/fields/--CAT",
            "title": "Category",
            "type": "Class Variable"
          },
          "parentDomain": {
            "href": "/mdr/cdashig/2-2/domains/CM",
            "title": "Concomitant/Prior Medications",
            "type": "CDASH Domain"
          },
          "parentProduct": {
            "href": "/mdr/cdashig/2-2",
            "title": "Clinical Data Acquisition Standards Harmonization Implementation Guide for Human Clinical Trials Version 2.2",
            "type": "Implementation Guide"
          },
          "priorVersion": {
            "href": "/mdr/cdashig/2-1/domains/CM/fields/CMCAT",
            "title": "Category for Medication",
            "type": "Data Collection Field"
          },
          "rootItem": {
            "href": "/mdr/root/cdashig/domains/CM/fields/CMCAT",
            "title": "Category for Medication",
            "type": "Root Data Element"
          },
          "sdtmigDatasetMappingTargets": [
            {
              "href": "/mdr/sdtmig/3-3/datasets/CM/variables/CMCAT",
              "title": "Category for Medication",
              "type": "SDTM Dataset Variable"
            }
          ],
          "self": {
            "href": "/mdr/cdashig/2-2/domains/CM/fields/CMCAT",
            "title": "Category for Medication",
            "type": "Data Collection Field"
          }
        },
        "completionInstructions": "Record the (concomitant) [medication/treatment/therapy] category, if not pre-printed on the CRF.",
        "core": "O",
        "definition": "A grouping of topic-variable values based on user-defined characteristics.",
        "implementationNotes": "Sponsor-defined controlled terminology. This would most commonly be either a heading or a pre-printed category value on the CRF, not a question to which the site would provide an answer. If a question is asked, the response would typically be a sponsor-defined codelist. If the form is laid out as a grid, then words such as \"Category\" can be included in the column heading.",
        "label": "Category for Medication",
        "mappingInstructions": "Maps directly to the SDTMIG variable listed in the SDTMIG Target column.",
        "name": "CMCAT",
        "ordinal": "4",
        "prompt": "(Concomitant) [Medication/Treatment/Therapy Category]; NULL",
        "questionText": "What is the category for the (concomitant) [medication/treatment/therapy]?",
        "simpleDatatype": "Char"
      },
      {
        "_links": {
          "implements": {
            "href": "/mdr/cdash/1-2/classes/Interventions/fields/--SCAT",
            "title": "Subcategory",
            "type": "Class Variable"
          },
          "parentDomain": {
            "href": "/mdr/cdashig/2-2/domains/CM",
            "title": "Concomitant/Prior Medications",
            "type": "CDASH Domain"
          },
          "parentProduct": {
            "href": "/mdr/cdashig/2-2",
            "title": "Clinical Data Acquisition Standards Harmonization Implementation Guide for Human Clinical Trials Version 2.2",
            "type": "Implementation Guide"
          },
          "priorVersion": {
            "href": "/mdr/cdashig/2-1/domains/CM/fields/CMSCAT",
            "title": "Subcategory for Medication",
            "type": "Data Collection Field"
          },
          "rootItem": {
            "href": "/mdr/root/cdashig/domains/CM/fields/CMSCAT",
            "title": "Subcategory for Medication",
            "type": "Root Data Element"
          },
          "sdtmigDatasetMappingTargets": [
            {
              "href": "/mdr/sdtmig/3-3/datasets/CM/variables/CMSCAT",
              "title": "Subcategory for Medication",
              "type": "SDTM Dataset Variable"
            }
          ],
          "self": {
            "href": "/mdr/cdashig/2-2/domains/CM/fields/CMSCAT",
            "title": "Subcategory for Medication",
            "type": "Data Collection Field"
          }
        },
        "completionInstructions": "Record (concomitant) [medication/treatment/therapy] subcategory, if not pre-printed on the CRF.",
        "core": "O",
        "definition": "A sub-division of the CMCAT values based on user-defined characteristics.",
        "implementationNotes": "Sponsor-defined controlled terminology. This would most commonly be pre-printed on the CRF or screen and pre-populated in the data management system. This is not typically a question to which the site would provide an answer.",
        "label": "Subcategory for Medication",
        "mappingInstructions": "Maps directly to the SDTMIG variable listed in the SDTMIG Target column.",
        "name": "CMSCAT",
        "ordinal": "5",
        "prompt": "(Concomitant) [Medication/Treatment/Therapy subcategory]; NULL",
        "questionText": "What is the subcategory for the (concomitant) [medication/treatment/therapy]?",
        "simpleDatatype": "Char"
      },
      {
        "_links": {
          "codelist": [
            {
              "href": "/mdr/root/ct/sdtmct/codelists/C66742",
              "title": "Version-agnostic anchor resource for codelist C66742",
              "type": "Root Value Domain"
            }
          ],
          "implements": {
            "href": "/mdr/cdash/1-2/classes/Interventions/fields/--YN",
            "title": "Any [Intervention]",
            "type": "Class Variable"
          },
          "parentDomain": {
            "href": "/mdr/cdashig/2-2/domains/CM",
            "title": "Concomitant/Prior Medications",
            "type": "CDASH Domain"
          },
          "parentProduct": {
            "href": "/mdr/cdashig/2-2",
            "title": "Clinical Data Acquisition Standards Harmonization Implementation Guide for Human Clinical Trials Version 2.2",
            "type": "Implementation Guide"
          },
          "priorVersion": {
            "href": "/mdr/cdashig/2-1/domains/CM/fields/CMYN",
            "title": "Any Concomitant Medications Taken",
            "type": "Data Collection Field"
          },
          "rootItem": {
            "href": "/mdr/root/cdashig/domains/CM/fields/CMYN",
            "title": "Any Concomitant Medications Taken",
            "type": "Root Data Element"
          },
          "self": {
            "href": "/mdr/cdashig/2-2/domains/CM/fields/CMYN",
            "title": "Any Concomitant Medications Taken",
            "type": "Data Collection Field"
          }
        },
        "completionInstructions": "Indicate if the subject took any (concomitant) [medications/treatments]. If Yes, include the appropriate details where indicated on the CRF.",
        "core": "O",
        "definition": "An indication of whether any (concomitant) medications/treatments/therapies were taken/given.",
        "implementationNotes": "The intent/purpose of collecting this field is to help with data cleaning and monitoring. It provides verification that all other fields on the CRF were deliberately left blank.",
        "label": "Any Concomitant Medications Taken",
        "mappingInstructions": "Does not map to an SDTMIG variable. The SDTM annotated CRF indicates that this field is NOT SUBMITTED.",
        "name": "CMYN",
        "ordinal": "6",
        "prompt": "Any (Concomitant) [Medication(s)/Treatment(s)/Therapy(ies)]",
        "questionText": "Were/Was any (concomitant) [medication(s)/treatment(s)/therapy(ies)] taken?",
        "simpleDatatype": "Char"
      },
      {
        "_links": {
          "implements": {
            "href": "/mdr/cdash/1-2/classes/Identifiers/fields/--SPID",
            "title": "Sponsor-Defined Identifier",
            "type": "Class Variable"
          },
          "parentDomain": {
            "href": "/mdr/cdashig/2-2/domains/CM",
            "title": "Concomitant/Prior Medications",
            "type": "CDASH Domain"
          },
          "parentProduct": {
            "href": "/mdr/cdashig/2-2",
            "title": "Clinical Data Acquisition Standards Harmonization Implementation Guide for Human Clinical Trials Version 2.2",
            "type": "Implementation Guide"
          },
          "priorVersion": {
            "href": "/mdr/cdashig/2-1/domains/CM/fields/CMSPID",
            "title": "CM Sponsor-Defined Identifier",
            "type": "Data Collection Field"
          },
          "rootItem": {
            "href": "/mdr/root/cdashig/domains/CM/fields/CMSPID",
            "title": "CM Sponsor-Defined Identifier",
            "type": "Root Data Element"
          },
          "sdtmigDatasetMappingTargets": [
            {
              "href": "/mdr/sdtmig/3-3/datasets/CM/variables/CMSPID",
              "title": "Sponsor-Defined Identifier",
              "type": "SDTM Dataset Variable"
            }
          ],
          "self": {
            "href": "/mdr/cdashig/2-2/domains/CM/fields/CMSPID",
            "title": "CM Sponsor-Defined Identifier",
            "type": "Data Collection Field"
          }
        },
        "completionInstructions": "If collected on the CRF, sponsor may insert instructions to ensure each record has a unique identifier.",
        "core": "O",
        "definition": "A sponsor-defined identifier. In CDASH, this is typically used for pre-printed or auto-generated numbers on the CRF, or any other type of identifier that does not already have a defined CDASH identifier field.",
        "implementationNotes": "Because SPID is a sponsor-defined identifier, conformance to Question Text or Item Prompt is not applicable. Typically used as an identifier in a data query to communicate clearly to the site the specific record in question or to reconcile concomitant medication/treatment records with AEs and/or MH. May be used to record pre-printed number (e.g. line number, record number) on the CRF. This field may be populated by the sponsor's data collection system.",
        "label": "CM Sponsor-Defined Identifier",
        "mappingInstructions": "Maps directly to the SDTMIG variable listed in the SDTMIG Target column. May be used to create RELREC to link this record with a record in another domain.",
        "name": "CMSPID",
        "ordinal": "7",
        "prompt": "[Sponsor defined]",
        "questionText": "[Sponsor-defined question]",
        "simpleDatatype": "Char"
      },
      {
        "_links": {
          "implements": {
            "href": "/mdr/cdash/1-2/classes/Interventions/fields/--TRT",
            "title": "Name of Treatment",
            "type": "Class Variable"
          },
          "parentDomain": {
            "href": "/mdr/cdashig/2-2/domains/CM",
            "title": "Concomitant/Prior Medications",
            "type": "CDASH Domain"
          },
          "parentProduct": {
            "href": "/mdr/cdashig/2-2",
            "title": "Clinical Data Acquisition Standards Harmonization Implementation Guide for Human Clinical Trials Version 2.2",
            "type": "Implementation Guide"
          },
          "priorVersion": {
            "href": "/mdr/cdashig/2-1/domains/CM/fields/CMTRT",
            "title": "Reported Name of Drug, Med, or Therapy",
            "type": "Data Collection Field"
          },
          "rootItem": {
            "href": "/mdr/root/cdashig/domains/CM/fields/CMTRT",
            "title": "Reported Name of Drug, Med, or Therapy",
            "type": "Root Data Element"
          },
          "sdtmigDatasetMappingTargets": [
            {
              "href": "/mdr/sdtmig/3-3/datasets/CM/variables/CMTRT",
              "title": "Reported Name of Drug, Med, or Therapy",
              "type": "SDTM Dataset Variable"
            }
          ],
          "self": {
            "href": "/mdr/cdashig/2-2/domains/CM/fields/CMTRT",
            "title": "Reported Name of Drug, Med, or Therapy",
            "type": "Data Collection Field"
          }
        },
        "completionInstructions": "Record only 1 [medication/treatment/therapy] per line. Provide the full trade or proprietary name of the [medication/treatment/therapy]; otherwise the generic name may be recorded.",
        "core": "HR",
        "definition": "Verbatim medication name or treatments (include only treatments with data collection characteristics similar to medications).",
        "implementationNotes": "In most cases, the verbatim drug names or treatment will be coded to a standard dictionary (e.g., WHODrug) after data have been collected on the CRF. For the collection of verbatim drug name or treatments, the recommendation is for sites to provide the full trade or proprietary name, which is more exact than the generic. The full trade name provides the base generic and the appropriate salt for that particular drug. In addition, for coding purposes, it helps with ATC selection (e.g., Tylenol with codeine #1 has a different ATC code than Tylenol with codeine #3). This field can be used for either prior or concomitant medication/treatments.",
        "label": "Reported Name of Drug, Med, or Therapy",
        "mappingInstructions": "Maps directly to the SDTMIG variable listed in the SDTMIG Target column.",
        "name": "CMTRT",
        "ordinal": "8",
        "prompt": "(Concomitant) [Medication/Treatment/Therapy]",
        "questionText": "What was the (concomitant) [medication/treatment/therapy] (name/term)?",
        "simpleDatatype": "Char"
      },
      {
        "_links": {
          "codelist": [
            {
              "href": "/mdr/root/ct/sdtmct/codelists/C66742",
              "title": "Version-agnostic anchor resource for codelist C66742",
              "type": "Root Value Domain"
            }
          ],
          "implements": {
            "href": "/mdr/cdash/1-2/classes/Interventions/fields/--PRESP",
            "title": "Pre-Specified Intervention",
            "type": "Class Variable"
          },
          "parentDomain": {
            "href": "/mdr/cdashig/2-2/domains/CM",
            "title": "Concomitant/Prior Medications",
            "type": "CDASH Domain"
          },
          "parentProduct": {
            "href": "/mdr/cdashig/2-2",
            "title": "Clinical Data Acquisition Standards Harmonization Implementation Guide for Human Clinical Trials Version 2.2",
            "type": "Implementation Guide"
          },
          "priorVersion": {
            "href": "/mdr/cdashig/2-1/domains/CM/fields/CMPRESP",
            "title": "CM Pre-Specified",
            "type": "Data Collection Field"
          },
          "rootItem": {
            "href": "/mdr/root/cdashig/domains/CM/fields/CMPRESP",
            "title": "CM Pre-Specified",
            "type": "Root Data Element"
          },
          "sdtmigDatasetMappingTargets": [
            {
              "href": "/mdr/sdtmig/3-3/datasets/CM/variables/CMPRESP",
              "title": "CM Pre-specified",
              "type": "SDTM Dataset Variable"
            }
          ],
          "self": {
            "href": "/mdr/cdashig/2-2/domains/CM/fields/CMPRESP",
            "title": "CM Pre-Specified",
            "type": "Data Collection Field"
          }
        },
        "core": "O",
        "definition": "An indication that a specific intervention or a group of interventions is pre-specified on a CRF.",
        "implementationNotes": "For pre-specified interventions, this is a hidden field on a CRF defaulted to \"Y\", or added during the SDTM dataset creation. If a study collects both pre-specified and free-text interventions, the value of CMPRESP should be \"Y\" for all pre-specified interventions and null for interventions reported as free text.",
        "label": "CM Pre-Specified",
        "mappingInstructions": "Maps directly to the SDTMIG variable listed in the SDTMIG Target column.",
        "name": "CMPRESP",
        "ordinal": "9",
        "simpleDatatype": "Char"
      },
      {
        "_links": {
          "codelist": [
            {
              "href": "/mdr/root/ct/sdtmct/codelists/C66742",
              "title": "Version-agnostic anchor resource for codelist C66742",
              "type": "Root Value Domain"
            }
          ],
          "implements": {
            "href": "/mdr/cdash/1-2/classes/Interventions/fields/--OCCUR",
            "title": "Occurrence",
            "type": "Class Variable"
          },
          "parentDomain": {
            "href": "/mdr/cdashig/2-2/domains/CM",
            "title": "Concomitant/Prior Medications",
            "type": "CDASH Domain"
          },
          "parentProduct": {
            "href": "/mdr/cdashig/2-2",
            "title": "Clinical Data Acquisition Standards Harmonization Implementation Guide for Human Clinical Trials Version 2.2",
            "type": "Implementation Guide"
          },
          "priorVersion": {
            "href": "/mdr/cdashig/2-1/domains/CM/fields/CMOCCUR",
            "title": "CM Occurrence",
            "type": "Data Collection Field"
          },
          "rootItem": {
            "href": "/mdr/root/cdashig/domains/CM/fields/CMOCCUR",
            "title": "CM Occurrence",
            "type": "Root Data Element"
          },
          "sdtmigDatasetMappingTargets": [
            {
              "href": "/mdr/sdtmig/3-3/datasets/CM/variables/CMOCCUR",
              "title": "CM Occurrence",
              "type": "SDTM Dataset Variable"
            }
          ],
          "self": {
            "href": "/mdr/cdashig/2-2/domains/CM/fields/CMOCCUR",
            "title": "CM Occurrence",
            "type": "Data Collection Field"
          }
        },
        "completionInstructions": "Indicate if [specific medication/treatment] was taken by checking Yes or No.",
        "core": "O",
        "definition": "An indication whether the prespecified medication/treatment/therapy (CMTRT) or the group of medications/treatments/therapies was administered when information about the occurrence of a specific intervention was solicited.",
        "implementationNotes": "CMOCCUR is used to report the occurrence of a pre-specified medication/treatment. CMOCCUR is not used for spontaneously free-text reported concomitant medication/treatments. The site should be able to indicate that the question was not asked or answered.",
        "label": "CM Occurrence",
        "mappingInstructions": "Maps directly to the SDTMIG variable listed in the SDTMIG Target column. If the question was not asked or answered, populate the SDTMIG variable CMSTAT with \"NOT DONE\".",
        "name": "CMOCCUR",
        "ordinal": "10",
        "prompt": "[Specific (Concomitant) [Medication/Treatment/Therapy]",
        "questionText": "Did the subject take [prespecified (concomitant) medication/treatment/therapy/dose]?; Has the subject taken [prespecified (concomitant) medication/treatment/therapy/dose]?",
        "simpleDatatype": "Char"
      },
      {
        "_links": {
          "implements": {
            "href": "/mdr/cdash/1-2/classes/Interventions/fields/--INGRD",
            "title": "Active Ingredients",
            "type": "Class Variable"
          },
          "parentDomain": {
            "href": "/mdr/cdashig/2-2/domains/CM",
            "title": "Concomitant/Prior Medications",
            "type": "CDASH Domain"
          },
          "parentProduct": {
            "href": "/mdr/cdashig/2-2",
            "title": "Clinical Data Acquisition Standards Harmonization Implementation Guide for Human Clinical Trials Version 2.2",
            "type": "Implementation Guide"
          },
          "priorVersion": {
            "href": "/mdr/cdashig/2-1/domains/CM/fields/CMINGRD",
            "title": "Concomitant Meds Active Ingredients",
            "type": "Data Collection Field"
          },
          "rootItem": {
            "href": "/mdr/root/cdashig/domains/CM/fields/CMINGRD",
            "title": "Concomitant Meds Active Ingredients",
            "type": "Root Data Element"
          },
          "self": {
            "href": "/mdr/cdashig/2-2/domains/CM/fields/CMINGRD",
            "title": "Concomitant Meds Active Ingredients",
            "type": "Data Collection Field"
          }
        },
        "completionInstructions": "Prior to a subject's clinical visit, remind all subjects to bring all medications bottles, packs etc. they are taking with them to their clinical visit. Record all active ingredient(s) off the medication label and separate each ingredient with a comma for the name of drug medication or treatment taken. For example, the medication Dolmen, if manufactured in Spain, the active ingredients should be collected as noted below: Active Ingredient: Acetylsalicylic Acid, Ascorbic acid, codeine phosphate.",
        "core": "O",
        "definition": "Medication ingredients.",
        "implementationNotes": "This may be collected in addition to the medication/treatment name. Collecting this provides more detailed information when coding to a medication dictionary like WHODrug Dictionary Enhanced Format C, which codes to the ingredient level for many trade-name medications. For example, depending on the country where it is manufactured, the active ingredients in the medication dolmen may be different: In Spain, acetylsalicylic acid, ascorbic acid, codeine phosphate; in Italy and Czech Republic, tenoxicam; in Estonia and Latvia, dexketoprofen trometamol.",
        "label": "Concomitant Meds Active Ingredients",
        "mappingInstructions": "Does not map to an SDTMIG variable. The SDTM annotated CRF indicates that this field is NOT SUBMITTED.",
        "name": "CMINGRD",
        "ordinal": "11",
        "prompt": "Active Ingredients",
        "questionText": "What were the active ingredients?",
        "simpleDatatype": "Char"
      },
      {
        "_links": {
          "implements": {
            "href": "/mdr/cdash/1-2/classes/Interventions/fields/--INDC",
            "title": "Indication",
            "type": "Class Variable"
          },
          "parentDomain": {
            "href": "/mdr/cdashig/2-2/domains/CM",
            "title": "Concomitant/Prior Medications",
            "type": "CDASH Domain"
          },
          "parentProduct": {
            "href": "/mdr/cdashig/2-2",
            "title": "Clinical Data Acquisition Standards Harmonization Implementation Guide for Human Clinical Trials Version 2.2",
            "type": "Implementation Guide"
          },
          "priorVersion": {
            "href": "/mdr/cdashig/2-1/domains/CM/fields/CMINDC",
            "title": "CM Indication",
            "type": "Data Collection Field"
          },
          "rootItem": {
            "href": "/mdr/root/cdashig/domains/CM/fields/CMINDC",
            "title": "CM Indication",
            "type": "Root Data Element"
          },
          "sdtmigDatasetMappingTargets": [
            {
              "href": "/mdr/sdtmig/3-3/datasets/CM/variables/CMINDC",
              "title": "Indication",
              "type": "SDTM Dataset Variable"
            }
          ],
          "self": {
            "href": "/mdr/cdashig/2-2/domains/CM/fields/CMINDC",
            "title": "CM Indication",
            "type": "Data Collection Field"
          }
        },
        "completionInstructions": "Record the reason the medication was taken based on clinical investigator's evaluation. If taken to treat a condition, and a diagnosis was made, the indication should be the diagnosis. If taken to treat a condition, and no diagnosis was made, the indication should be the signs and symptoms. If taken as prophylaxis, report as \"Prophylaxis for \" and include a description of the condition(s).",
        "core": "R/C",
        "definition": "The condition, disease, symptom, or disorder that the concomitant (non-study) medication/treatment/therapy was used to address or investigate (e.g., why the medication/treatment/therapy was taken or administered).",
        "implementationNotes": "This is not the pharmacological/therapeutic classification of an agent (e.g., antibiotic, analgesic), but rather the reason for its administration to the subject. This additional information is collected on the CRF when sponsors want to capture the reason(s) a subject took a medication/treatment. This information could be used as deemed appropriate for coding; analysis (e.g., in the classification of medications); reconciling medications/treatments taken by a subject with provided medical history; and/or AEs/SAEs, as part of the data clean-up and monitoring process.",
        "label": "CM Indication",
        "mappingInstructions": "Maps directly to the SDTMIG variable listed in the SDTMIG Target column.",
        "name": "CMINDC",
        "ordinal": "12",
        "prompt": "Indication",
        "questionText": "For what indication was the (concomitant) [medication/treatment/therapy] taken?",
        "simpleDatatype": "Char"
      },
      {
        "_links": {
          "implements": {
            "href": "/mdr/cdash/1-2/classes/Identifiers/fields/--AENO",
            "title": "Related Adverse Event ID",
            "type": "Class Variable"
          },
          "parentDomain": {
            "href": "/mdr/cdashig/2-2/domains/CM",
            "title": "Concomitant/Prior Medications",
            "type": "CDASH Domain"
          },
          "parentProduct": {
            "href": "/mdr/cdashig/2-2",
            "title": "Clinical Data Acquisition Standards Harmonization Implementation Guide for Human Clinical Trials Version 2.2",
            "type": "Implementation Guide"
          },
          "priorVersion": {
            "href": "/mdr/cdashig/2-1/domains/CM/fields/CMAENO",
            "title": "Related Adverse Event ID",
            "type": "Data Collection Field"
          },
          "rootItem": {
            "href": "/mdr/root/cdashig/domains/CM/fields/CMAENO",
            "title": "Related Adverse Event ID",
            "type": "Root Data Element"
          },
          "self": {
            "href": "/mdr/cdashig/2-2/domains/CM/fields/CMAENO",
            "title": "Related Adverse Event ID",
            "type": "Data Collection Field"
          }
        },
        "completionInstructions": "Record the identifier of the Adverse Event for which this (concomitant) [medication/treatment/therapy] was taken.",
        "core": "O",
        "definition": "Identifier for the adverse event that is the indication for this medication/treatment/therapy.",
        "implementationNotes": "The intent is to establish a link between the medication/treatment and the AE that was reported. CMAENO can be used to identify a relationship between records in CM dataset and records in the AE dataset. See the SDTMIG for information on RELREC.",
        "label": "Related Adverse Event ID",
        "mappingInstructions": "This does not map directly to an SDTMIG variable. For SDTM submission datasets, may be used to create RELREC to link this record with a record in the AE domain.",
        "name": "CMAENO",
        "ordinal": "13",
        "prompt": "Adverse Event Identifier",
        "questionText": "What was the identifier for the adverse event(s) for which the (concomitant) [medication/treatment/therapy] was taken?",
        "simpleDatatype": "Char"
      },
      {
        "_links": {
          "implements": {
            "href": "/mdr/cdash/1-2/classes/Identifiers/fields/--MHNO",
            "title": "Related Medical History Event ID",
            "type": "Class Variable"
          },
          "parentDomain": {
            "href": "/mdr/cdashig/2-2/domains/CM",
            "title": "Concomitant/Prior Medications",
            "type": "CDASH Domain"
          },
          "parentProduct": {
            "href": "/mdr/cdashig/2-2",
            "title": "Clinical Data Acquisition Standards Harmonization Implementation Guide for Human Clinical Trials Version 2.2",
            "type": "Implementation Guide"
          },
          "priorVersion": {
            "href": "/mdr/cdashig/2-1/domains/CM/fields/CMMHNO",
            "title": "Related Medical History Event ID",
            "type": "Data Collection Field"
          },
          "rootItem": {
            "href": "/mdr/root/cdashig/domains/CM/fields/CMMHNO",
            "title": "Related Medical History Event ID",
            "type": "Root Data Element"
          },
          "self": {
            "href": "/mdr/cdashig/2-2/domains/CM/fields/CMMHNO",
            "title": "Related Medical History Event ID",
            "type": "Data Collection Field"
          }
        },
        "completionInstructions": "Record the identifier of the medical history event for which this (concomitant) [medication/treatment/therapy] was taken.",
        "core": "O",
        "definition": "Identifier for the medical history condition that is the indication for this medication/treatment/therapy.",
        "implementationNotes": "The intent is to establish a link between the medical history condition and the medication/treatment taken for the condition. CMMHNO can be used to identify a relationship between records in the CM dataset and records in the MH dataset. See the SDTMIG for information on RELREC.",
        "label": "Related Medical History Event ID",
        "mappingInstructions": "This does not map directly to an SDTMIG variable. For SDTM submission datasets, may be used to create RELREC to link this record with a record in the MH domain.",
        "name": "CMMHNO",
        "ordinal": "14",
        "prompt": "Medical History Event Identifier",
        "questionText": "What was the identifier for the medical history event(s) for which the (concomitant) [medication/treatment/therapy] was taken?",
        "simpleDatatype": "Char"
      },
      {
        "_links": {
          "implements": {
            "href": "/mdr/cdash/1-2/classes/Interventions/fields/--DOSE",
            "title": "Dose",
            "type": "Class Variable"
          },
          "parentDomain": {
            "href": "/mdr/cdashig/2-2/domains/CM",
            "title": "Concomitant/Prior Medications",
            "type": "CDASH Domain"
          },
          "parentProduct": {
            "href": "/mdr/cdashig/2-2",
            "title": "Clinical Data Acquisition Standards Harmonization Implementation Guide for Human Clinical Trials Version 2.2",
            "type": "Implementation Guide"
          },
          "priorVersion": {
            "href": "/mdr/cdashig/2-1/domains/CM/fields/CMDOSE",
            "title": "CM Dose per Administration",
            "type": "Data Collection Field"
          },
          "rootItem": {
            "href": "/mdr/root/cdashig/domains/CM/fields/CMDOSE",
            "title": "CM Dose per Administration",
            "type": "Root Data Element"
          },
          "sdtmigDatasetMappingTargets": [
            {
              "href": "/mdr/sdtmig/3-3/datasets/CM/variables/CMDOSE",
              "title": "Dose per Administration",
              "type": "SDTM Dataset Variable"
            }
          ],
          "self": {
            "href": "/mdr/cdashig/2-2/domains/CM/fields/CMDOSE",
            "title": "CM Dose per Administration",
            "type": "Data Collection Field"
          }
        },
        "completionInstructions": "Record the dose of (concomitant) [medication/treatment] taken per administration (e.g., 200).",
        "core": "O",
        "definition": "The dose of medication/treatment (e.g., --TRT ) given at one time, represented as a numeric value.",
        "implementationNotes": "Used when the dose/amount taken/administered/consumed has only numeric entries. If non-numeric entries are possible, use the CDASH field CMDSTXT.",
        "label": "CM Dose per Administration",
        "mappingInstructions": "Maps directly to the SDTMIG variable listed in the SDTMIG Target column.",
        "name": "CMDOSE",
        "ordinal": "15",
        "prompt": "[Dose/Amount] (per administration)",
        "questionText": "What was the individual dose (of the concomitant [medication/treatment/therapy] per administration)?",
        "simpleDatatype": "Num"
      },
      {
        "_links": {
          "implements": {
            "href": "/mdr/cdash/1-2/classes/Interventions/fields/--DSTXT",
            "title": "Dose Description",
            "type": "Class Variable"
          },
          "parentDomain": {
            "href": "/mdr/cdashig/2-2/domains/CM",
            "title": "Concomitant/Prior Medications",
            "type": "CDASH Domain"
          },
          "parentProduct": {
            "href": "/mdr/cdashig/2-2",
            "title": "Clinical Data Acquisition Standards Harmonization Implementation Guide for Human Clinical Trials Version 2.2",
            "type": "Implementation Guide"
          },
          "priorVersion": {
            "href": "/mdr/cdashig/2-1/domains/CM/fields/CMDSTXT",
            "title": "Concomitant Meds Dose Description",
            "type": "Data Collection Field"
          },
          "rootItem": {
            "href": "/mdr/root/cdashig/domains/CM/fields/CMDSTXT",
            "title": "Concomitant Meds Dose Description",
            "type": "Root Data Element"
          },
          "sdtmigDatasetMappingTargets": [
            {
              "href": "/mdr/sdtmig/3-3/datasets/CM/variables/CMDOSTXT",
              "title": "Dose Description",
              "type": "SDTM Dataset Variable"
            },
            {
              "href": "/mdr/sdtmig/3-3/datasets/CM/variables/CMDOSE",
              "title": "Dose per Administration",
              "type": "SDTM Dataset Variable"
            }
          ],
          "self": {
            "href": "/mdr/cdashig/2-2/domains/CM/fields/CMDSTXT",
            "title": "Concomitant Meds Dose Description",
            "type": "Data Collection Field"
          }
        },
        "completionInstructions": "Record the dose of (concomitant) [medication/treatment] taken per administration (e.g., 200).",
        "core": "O",
        "definition": "The dose of medication/treatment taken per administration.",
        "implementationNotes": "Defining this data collection field as a dose text field allows for flexibility in capturing dose entries as numbers, text, or ranges. The data collected in this text-format field should be separated or mapped to either SDTMIG CMDOSE if numeric or CMDOSTXT if text.",
        "label": "Concomitant Meds Dose Description",
        "mappingInstructions": "This does not map directly to an SDTMIG variable. Numeric values map to CMDOSE in SDTM. Non-numeric values (e.g., \"200-400\") map to CMDOSTXT in SDTM.",
        "name": "CMDSTXT",
        "ordinal": "16",
        "prompt": "Dose",
        "questionText": "What was the individual dose of the (concomitant) [medication/treatment/therapy]?",
        "simpleDatatype": "Char"
      },
      {
        "_links": {
          "implements": {
            "href": "/mdr/cdash/1-2/classes/Interventions/fields/--DOSTOT",
            "title": "Total Daily Dose",
            "type": "Class Variable"
          },
          "parentDomain": {
            "href": "/mdr/cdashig/2-2/domains/CM",
            "title": "Concomitant/Prior Medications",
            "type": "CDASH Domain"
          },
          "parentProduct": {
            "href": "/mdr/cdashig/2-2",
            "title": "Clinical Data Acquisition Standards Harmonization Implementation Guide for Human Clinical Trials Version 2.2",
            "type": "Implementation Guide"
          },
          "priorVersion": {
            "href": "/mdr/cdashig/2-1/domains/CM/fields/CMDOSTOT",
            "title": "CM Total Daily Dose",
            "type": "Data Collection Field"
          },
          "rootItem": {
            "href": "/mdr/root/cdashig/domains/CM/fields/CMDOSTOT",
            "title": "CM Total Daily Dose",
            "type": "Root Data Element"
          },
          "sdtmigDatasetMappingTargets": [
            {
              "href": "/mdr/sdtmig/3-3/datasets/CM/variables/CMDOSTOT",
              "title": "Total Daily Dose",
              "type": "SDTM Dataset Variable"
            }
          ],
          "self": {
            "href": "/mdr/cdashig/2-2/domains/CM/fields/CMDOSTOT",
            "title": "CM Total Daily Dose",
            "type": "Data Collection Field"
          }
        },
        "completionInstructions": "Record the total dose of (concomitant) [medication/treatment/therapy] taken daily.",
        "core": "O",
        "definition": "The total amount of CMTRT taken over a day, using the units in CMDOSU.",
        "implementationNotes": "For use when only total daily dose is collected on the CRF. For general medications/treatments, it is not recommended to use Total Daily Dose. Instead, this can be calculated from other fields (e.g., Units, Dose, Frequency).",
        "label": "CM Total Daily Dose",
        "mappingInstructions": "Maps directly to the SDTMIG variable listed in the SDTMIG Target column.",
        "name": "CMDOSTOT",
        "ordinal": "17",
        "prompt": "Total Daily Dose",
        "questionText": "What was the total daily dose of the (concomitant) [medication/treatment/therapy]?",
        "simpleDatatype": "Num"
      },
      {
        "_links": {
          "codelist": [
            {
              "href": "/mdr/root/ct/sdtmct/codelists/C71620",
              "title": "Version-agnostic anchor resource for codelist C71620",
              "type": "Root Value Domain"
            },
            {
              "href": "/mdr/root/ct/cdashct/codelists/C78417",
              "title": "Version-agnostic anchor resource for codelist C78417",
              "type": "Root Value Domain"
            }
          ],
          "implements": {
            "href": "/mdr/cdash/1-2/classes/Interventions/fields/--DOSU",
            "title": "Dose Units",
            "type": "Class Variable"
          },
          "parentDomain": {
            "href": "/mdr/cdashig/2-2/domains/CM",
            "title": "Concomitant/Prior Medications",
            "type": "CDASH Domain"
          },
          "parentProduct": {
            "href": "/mdr/cdashig/2-2",
            "title": "Clinical Data Acquisition Standards Harmonization Implementation Guide for Human Clinical Trials Version 2.2",
            "type": "Implementation Guide"
          },
          "priorVersion": {
            "href": "/mdr/cdashig/2-1/domains/CM/fields/CMDOSU",
            "title": "CM Dose Units",
            "type": "Data Collection Field"
          },
          "rootItem": {
            "href": "/mdr/root/cdashig/domains/CM/fields/CMDOSU",
            "title": "CM Dose Units",
            "type": "Root Data Element"
          },
          "sdtmigDatasetMappingTargets": [
            {
              "href": "/mdr/sdtmig/3-3/datasets/CM/variables/CMDOSU",
              "title": "Dose Units",
              "type": "SDTM Dataset Variable"
            }
          ],
          "self": {
            "href": "/mdr/cdashig/2-2/domains/CM/fields/CMDOSU",
            "title": "CM Dose Units",
            "type": "Data Collection Field"
          }
        },
        "completionInstructions": "Record the dose unit of the dose of concomitant [medication/treatment/therapy] taken (e.g., mg.).",
        "core": "R/C",
        "definition": "The unit associated with the concomitant medication/treatment/therapy taken (e.g., mg in \"2 mg 3 times per day\").",
        "implementationNotes": "When sponsors collect data for amount of dose taken (i.e., Dose, Total Daily Dose), Unit must be collected as well (if applicable).",
        "label": "CM Dose Units",
        "mappingInstructions": "Maps directly to the SDTMIG variable listed in the SDTMIG Target column.",
        "name": "CMDOSU",
        "ordinal": "18",
        "prompt": "(Dose) Unit",
        "questionText": "What is the unit (for the dose of concomitant [medication/treatment/therapy])?",
        "simpleDatatype": "Char"
      },
      {
        "_links": {
          "codelist": [
            {
              "href": "/mdr/root/ct/sdtmct/codelists/C66726",
              "title": "Version-agnostic anchor resource for codelist C66726",
              "type": "Root Value Domain"
            },
            {
              "href": "/mdr/root/ct/cdashct/codelists/C78418",
              "title": "Version-agnostic anchor resource for codelist C78418",
              "type": "Root Value Domain"
            }
          ],
          "implements": {
            "href": "/mdr/cdash/1-2/classes/Interventions/fields/--DOSFRM",
            "title": "Dose Form",
            "type": "Class Variable"
          },
          "parentDomain": {
            "href": "/mdr/cdashig/2-2/domains/CM",
            "title": "Concomitant/Prior Medications",
            "type": "CDASH Domain"
          },
          "parentProduct": {
            "href": "/mdr/cdashig/2-2",
            "title": "Clinical Data Acquisition Standards Harmonization Implementation Guide for Human Clinical Trials Version 2.2",
            "type": "Implementation Guide"
          },
          "priorVersion": {
            "href": "/mdr/cdashig/2-1/domains/CM/fields/CMDOSFRM",
            "title": "CM Dose Form",
            "type": "Data Collection Field"
          },
          "rootItem": {
            "href": "/mdr/root/cdashig/domains/CM/fields/CMDOSFRM",
            "title": "CM Dose Form",
            "type": "Root Data Element"
          },
          "sdtmigDatasetMappingTargets": [
            {
              "href": "/mdr/sdtmig/3-3/datasets/CM/variables/CMDOSFRM",
              "title": "Dose Form",
              "type": "SDTM Dataset Variable"
            }
          ],
          "self": {
            "href": "/mdr/cdashig/2-2/domains/CM/fields/CMDOSFRM",
            "title": "CM Dose Form",
            "type": "Data Collection Field"
          }
        },
        "completionInstructions": "Record the pharmaceutical dosage form (e.g., TABLET CAPSULE, SYRUP) of delivery for the concomitant [medication/treatment/therapy] taken.",
        "core": "O",
        "definition": "The pharmaceutical dosage form in which the CMTRT is physically presented.",
        "implementationNotes": "Some drugs have multiple forms; this field may be needed to code the drug to an ATC level. However, in general, this level of detail should not be necessary except for medications/treatments of interest.",
        "label": "CM Dose Form",
        "mappingInstructions": "Maps directly to the SDTMIG variable listed in the SDTMIG Target column.",
        "name": "CMDOSFRM",
        "ordinal": "19",
        "prompt": "Dose Form",
        "questionText": "What was the dose form of the (concomitant) [medication/treatment/therapy]?",
        "simpleDatatype": "Char"
      },
      {
        "_links": {
          "codelist": [
            {
              "href": "/mdr/root/ct/sdtmct/codelists/C71113",
              "title": "Version-agnostic anchor resource for codelist C71113",
              "type": "Root Value Domain"
            },
            {
              "href": "/mdr/root/ct/cdashct/codelists/C78419",
              "title": "Version-agnostic anchor resource for codelist C78419",
              "type": "Root Value Domain"
            }
          ],
          "implements": {
            "href": "/mdr/cdash/1-2/classes/Interventions/fields/--DOSFRQ",
            "title": "Dosing Frequency per Interval",
            "type": "Class Variable"
          },
          "parentDomain": {
            "href": "/mdr/cdashig/2-2/domains/CM",
            "title": "Concomitant/Prior Medications",
            "type": "CDASH Domain"
          },
          "parentProduct": {
            "href": "/mdr/cdashig/2-2",
            "title": "Clinical Data Acquisition Standards Harmonization Implementation Guide for Human Clinical Trials Version 2.2",
            "type": "Implementation Guide"
          },
          "priorVersion": {
            "href": "/mdr/cdashig/2-1/domains/CM/fields/CMDOSFRQ",
            "title": "CM Dosing Frequency per Interval",
            "type": "Data Collection Field"
          },
          "rootItem": {
            "href": "/mdr/root/cdashig/domains/CM/fields/CMDOSFRQ",
            "title": "CM Dosing Frequency per Interval",
            "type": "Root Data Element"
          },
          "sdtmigDatasetMappingTargets": [
            {
              "href": "/mdr/sdtmig/3-3/datasets/CM/variables/CMDOSFRQ",
              "title": "Dosing Frequency per Interval",
              "type": "SDTM Dataset Variable"
            }
          ],
          "self": {
            "href": "/mdr/cdashig/2-2/domains/CM/fields/CMDOSFRQ",
            "title": "CM Dosing Frequency per Interval",
            "type": "Data Collection Field"
          }
        },
        "completionInstructions": "Record how often the (concomitant) [medication/treatment/therapy] was taken (e.g., BID, PRN).",
        "core": "O",
        "definition": "The number of doses given/administered/taken during a specific interval.",
        "implementationNotes": "The frequency of the concomitant medication/treatment. When collected, the recommendation is to collect dosing information in separate fields (e.g., CMDOSE, CMDOSEU, CMDOSFRQ) for specific and consistent data collection and to enable programmatically using these data.",
        "label": "CM Dosing Frequency per Interval",
        "mappingInstructions": "Maps directly to the SDTMIG variable listed in the SDTMIG Target column.",
        "name": "CMDOSFRQ",
        "ordinal": "20",
        "prompt": "Frequency",
        "questionText": "What was the frequency of the (concomitant) [medication/treatment/therapy]?",
        "simpleDatatype": "Char"
      },
      {
        "_links": {
          "codelist": [
            {
              "href": "/mdr/root/ct/sdtmct/codelists/C66729",
              "title": "Version-agnostic anchor resource for codelist C66729",
              "type": "Root Value Domain"
            },
            {
              "href": "/mdr/root/ct/cdashct/codelists/C78420",
              "title": "Version-agnostic anchor resource for codelist C78420",
              "type": "Root Value Domain"
            }
          ],
          "implements": {
            "href": "/mdr/cdash/1-2/classes/Interventions/fields/--ROUTE",
            "title": "Route of Administration",
            "type": "Class Variable"
          },
          "parentDomain": {
            "href": "/mdr/cdashig/2-2/domains/CM",
            "title": "Concomitant/Prior Medications",
            "type": "CDASH Domain"
          },
          "parentProduct": {
            "href": "/mdr/cdashig/2-2",
            "title": "Clinical Data Acquisition Standards Harmonization Implementation Guide for Human Clinical Trials Version 2.2",
            "type": "Implementation Guide"
          },
          "priorVersion": {
            "href": "/mdr/cdashig/2-1/domains/CM/fields/CMROUTE",
            "title": "CM Route of Administration",
            "type": "Data Collection Field"
          },
          "rootItem": {
            "href": "/mdr/root/cdashig/domains/CM/fields/CMROUTE",
            "title": "CM Route of Administration",
            "type": "Root Data Element"
          },
          "sdtmigDatasetMappingTargets": [
            {
              "href": "/mdr/sdtmig/3-3/datasets/CM/variables/CMROUTE",
              "title": "Route of Administration",
              "type": "SDTM Dataset Variable"
            }
          ],
          "self": {
            "href": "/mdr/cdashig/2-2/domains/CM/fields/CMROUTE",
            "title": "CM Route of Administration",
            "type": "Data Collection Field"
          }
        },
        "completionInstructions": "Provide the route of administration for the (concomitant) [medication/treatment/therapy].",
        "core": "R/C",
        "definition": "The route of administration of the concomitant medication/treatment/therapy.",
        "implementationNotes": "This additional information may be important to collect on the CRF when the sponsor wants to capture a medication's/treatment's route of administration, for purposes such as coding; also, the medication/treatment may have more than 1 route. Some companies may use route in coding medications/treatments, to be able to choose a precise preferred name and ATC code.",
        "label": "CM Route of Administration",
        "mappingInstructions": "Maps directly to the SDTMIG variable listed in the SDTMIG Target column.",
        "name": "CMROUTE",
        "ordinal": "21",
        "prompt": "Route",
        "questionText": "What was the route of administration of the (concomitant) [medication/treatment/therapy]?",
        "simpleDatatype": "Char"
      },
      {
        "_links": {
          "implements": {
            "href": "/mdr/cdash/1-2/classes/Timing/fields/--STDAT",
            "title": "Observation Start Date",
            "type": "Class Variable"
          },
          "parentDomain": {
            "href": "/mdr/cdashig/2-2/domains/CM",
            "title": "Concomitant/Prior Medications",
            "type": "CDASH Domain"
          },
          "parentProduct": {
            "href": "/mdr/cdashig/2-2",
            "title": "Clinical Data Acquisition Standards Harmonization Implementation Guide for Human Clinical Trials Version 2.2",
            "type": "Implementation Guide"
          },
          "priorVersion": {
            "href": "/mdr/cdashig/2-1/domains/CM/fields/CMSTDAT",
            "title": "Concomitant Meds Start Date",
            "type": "Data Collection Field"
          },
          "rootItem": {
            "href": "/mdr/root/cdashig/domains/CM/fields/CMSTDAT",
            "title": "Concomitant Meds Start Date",
            "type": "Root Data Element"
          },
          "sdtmigDatasetMappingTargets": [
            {
              "href": "/mdr/sdtmig/3-3/datasets/CM/variables/CMSTDTC",
              "title": "Start Date/Time of Medication",
              "type": "SDTM Dataset Variable"
            }
          ],
          "self": {
            "href": "/mdr/cdashig/2-2/domains/CM/fields/CMSTDAT",
            "title": "Concomitant Meds Start Date",
            "type": "Data Collection Field"
          }
        },
        "completionInstructions": "Record the date the concomitant [medication/treatment] was first taken using this format (DD-MON-YYYY). If the subject has been taking the concomitant [medication/treatment] for a considerable amount of time prior to the start of the study, it is acceptable to have an incomplete date. Concomitant [medication/treatment] taken during the study are expected to have a complete start date. Prior concomitant [medication/treatment] that are exclusionary should have both a start and end date.",
        "core": "R/C",
        "definition": "The start date is when the concomitant medication/treatment/therapy was first taken, represented in an unambiguous date format (e.g., DD-MON-YYYY).",
        "implementationNotes": "The assumption is that sponsors should either have a Start Date or will indicate that the medication or therapy was started before, during, or after the study period. The preferred method is to collect a complete Start Date. Partial dates (e.g., providing year only) for medications/treatment started a considerable amount of time prior to the start of study are acceptable.",
        "label": "Concomitant Meds Start Date",
        "mappingInstructions": "This does not map directly to an SDTMIG variable. For the SDTM submission dataset, concatenate all collected CDASH START DATE and TIME components and populate the SDTMIG variable CMSTDTC in ISO 8601 format.",
        "name": "CMSTDAT",
        "ordinal": "22",
        "prompt": "Start Date",
        "questionText": "What was the (concomitant) [medication/treatment/therapy/dose] start date?",
        "simpleDatatype": "Char"
      },
      {
        "_links": {
          "implements": {
            "href": "/mdr/cdash/1-2/classes/Timing/fields/--STTIM",
            "title": "Observation Start Time",
            "type": "Class Variable"
          },
          "parentDomain": {
            "href": "/mdr/cdashig/2-2/domains/CM",
            "title": "Concomitant/Prior Medications",
            "type": "CDASH Domain"
          },
          "parentProduct": {
            "href": "/mdr/cdashig/2-2",
            "title": "Clinical Data Acquisition Standards Harmonization Implementation Guide for Human Clinical Trials Version 2.2",
            "type": "Implementation Guide"
          },
          "priorVersion": {
            "href": "/mdr/cdashig/2-1/domains/CM/fields/CMSTTIM",
            "title": "Concomitant Meds Start Time",
            "type": "Data Collection Field"
          },
          "rootItem": {
            "href": "/mdr/root/cdashig/domains/CM/fields/CMSTTIM",
            "title": "Concomitant Meds Start Time",
            "type": "Root Data Element"
          },
          "sdtmigDatasetMappingTargets": [
            {
              "href": "/mdr/sdtmig/3-3/datasets/CM/variables/CMSTDTC",
              "title": "Start Date/Time of Medication",
              "type": "SDTM Dataset Variable"
            }
          ],
          "self": {
            "href": "/mdr/cdashig/2-2/domains/CM/fields/CMSTTIM",
            "title": "Concomitant Meds Start Time",
            "type": "Data Collection Field"
          }
        },
        "completionInstructions": "Record the time (as complete as possible) that the concomitant [medication/treatment] was started.",
        "core": "R/C",
        "definition": "The time the concomitant medication/treatment/therapy was started, represented in an unambiguous time format (e.g., hh:mm:ss).",
        "implementationNotes": "Recommend collecting the time a concomitant medication/treatment was started only when a protocol or data collection scenarios supports it. Typically, a start time is not collected unless the subject is under the direct care of the site at the time a concomitant medication/treatment administered or the subject records the start time in a diary.",
        "label": "Concomitant Meds Start Time",
        "mappingInstructions": "This does not map directly to an SDTMIG variable. For the SDTM submission dataset, concatenate all collected CDASH START DATE and TIME components and populate the SDTMIG variable CMSTDTC in ISO 8601 format.",
        "name": "CMSTTIM",
        "ordinal": "23",
        "prompt": "Start Time",
        "questionText": "What was the (concomitant) [medication/treatment/therapy/dose] start time?",
        "simpleDatatype": "Char"
      },
      {
        "_links": {
          "codelist": [
            {
              "href": "/mdr/root/ct/sdtmct/codelists/C66742",
              "title": "Version-agnostic anchor resource for codelist C66742",
              "type": "Root Value Domain"
            }
          ],
          "implements": {
            "href": "/mdr/cdash/1-2/classes/Timing/fields/--PRIOR",
            "title": "Prior",
            "type": "Class Variable"
          },
          "parentDomain": {
            "href": "/mdr/cdashig/2-2/domains/CM",
            "title": "Concomitant/Prior Medications",
            "type": "CDASH Domain"
          },
          "parentProduct": {
            "href": "/mdr/cdashig/2-2",
            "title": "Clinical Data Acquisition Standards Harmonization Implementation Guide for Human Clinical Trials Version 2.2",
            "type": "Implementation Guide"
          },
          "priorVersion": {
            "href": "/mdr/cdashig/2-1/domains/CM/fields/CMPRIOR",
            "title": "Prior Concomitant Meds",
            "type": "Data Collection Field"
          },
          "rootItem": {
            "href": "/mdr/root/cdashig/domains/CM/fields/CMPRIOR",
            "title": "Prior Concomitant Meds",
            "type": "Root Data Element"
          },
          "sdtmigDatasetMappingTargets": [
            {
              "href": "/mdr/sdtmig/3-3/datasets/CM/variables/CMSTRF",
              "title": "Start Relative to Reference Period",
              "type": "SDTM Dataset Variable"
            },
            {
              "href": "/mdr/sdtmig/3-3/datasets/CM/variables/CMSTRTPT",
              "title": "Start Relative to Reference Time Point",
              "type": "SDTM Dataset Variable"
            }
          ],
          "self": {
            "href": "/mdr/cdashig/2-2/domains/CM/fields/CMPRIOR",
            "title": "Prior Concomitant Meds",
            "type": "Data Collection Field"
          }
        },
        "completionInstructions": "Check if the concomitant [medication/treatment/therapy] was started before the study.",
        "core": "O",
        "definition": "Indication the concomitant medication/treatment/therapy was given or taken prior to [CMSTTPT] or prior to the date in DM.RFSTDTC.",
        "implementationNotes": "Sponsors may collect this information rather than start dates. See Section 3.7, Mapping Relative Times from Collection to Submissions, and the SDTMIG for more information.",
        "label": "Prior Concomitant Meds",
        "mappingInstructions": "This does not map directly to an SDTMIG variable. May be used to populate a value into an SDTM relative timing variable such as CMSTRF or CMSTRTPT. When populating CMSTRF, or CMSTRTPT, if the value of the CDASH field CMPRIOR is \"Y\" a value from the CDISC CT (STENRF) may be used. When CMPRIOR refers to the Study Reference Period (defined in DM.RFSTDTC to DM.RFENDTC), the SDTM variable CMSTRF should be populated. When CMPRIOR is compared to another time point, the SDTM variables CMSTRTPT and CMSTTPT should be used. Note: CMSTRTPT must refer to the time-point anchor described in CMSTTPT.",
        "name": "CMPRIOR",
        "ordinal": "24",
        "prompt": "Prior to [CMSTTPT]; Prior to Study",
        "questionText": "Was the (concomitant) [medication/treatment/therapy] given/taken prior to [CMSTTPT]?; Was the (concomitant) [medication/treatment/therapy] given/taken prior to study start?",
        "simpleDatatype": "Char"
      },
      {
        "_links": {
          "codelist": [
            {
              "href": "/mdr/root/ct/sdtmct/codelists/C66742",
              "title": "Version-agnostic anchor resource for codelist C66742",
              "type": "Root Value Domain"
            }
          ],
          "implements": {
            "href": "/mdr/cdash/1-2/classes/Interventions/fields/--ONGO",
            "title": "Ongoing Intervention",
            "type": "Class Variable"
          },
          "parentDomain": {
            "href": "/mdr/cdashig/2-2/domains/CM",
            "title": "Concomitant/Prior Medications",
            "type": "CDASH Domain"
          },
          "parentProduct": {
            "href": "/mdr/cdashig/2-2",
            "title": "Clinical Data Acquisition Standards Harmonization Implementation Guide for Human Clinical Trials Version 2.2",
            "type": "Implementation Guide"
          },
          "priorVersion": {
            "href": "/mdr/cdashig/2-1/domains/CM/fields/CMONGO",
            "title": "Ongoing Concomitant Meds",
            "type": "Data Collection Field"
          },
          "rootItem": {
            "href": "/mdr/root/cdashig/domains/CM/fields/CMONGO",
            "title": "Ongoing Concomitant Meds",
            "type": "Root Data Element"
          },
          "sdtmigDatasetMappingTargets": [
            {
              "href": "/mdr/sdtmig/3-3/datasets/CM/variables/CMENRF",
              "title": "End Relative to Reference Period",
              "type": "SDTM Dataset Variable"
            },
            {
              "href": "/mdr/sdtmig/3-3/datasets/CM/variables/CMENRTPT",
              "title": "End Relative to Reference Time Point",
              "type": "SDTM Dataset Variable"
            }
          ],
          "self": {
            "href": "/mdr/cdashig/2-2/domains/CM/fields/CMONGO",
            "title": "Ongoing Concomitant Meds",
            "type": "Data Collection Field"
          }
        },
        "completionInstructions": "Record the concomitant [medication/treatment/therapy] as ongoing if the subject has not stopped taking the concomitant [medication/treatment/therapy] at [the timepoint defined by the study]. If the concomitant medication is ongoing, the end date should be left blank",
        "core": "R/C",
        "definition": "Indication the concomitant medication/treatment/therapy is ongoing when no end date is provided.",
        "implementationNotes": "This box should be checked to indicate that the concomitant medication/treatment has not stopped at the time of data collection. It is expected that every recorded medication/treatment should have either an end date or be checked as ongoing, but not both. However, in cases where ongoing concomitant medications/treatments are not permitted, it may not be necessary to include an Ongoing field in the CRF. See Section 3.7, Mapping Relative Times from Collection to Submission, for more information about collecting relative date/time; see the SDTMIG for information about mapping relative times.",
        "label": "Ongoing Concomitant Meds",
        "mappingInstructions": "This does not map directly to an SDTM variable. May be used to populate a value into an SDTMIG relative timing variable (e.g., CMENRF, CMENRTPT). When populating CMENRF, if the value of CMONGO is \"Y\", the values of \"DURING\", \"AFTER\", or \"DURING/AFTER\" may be used. When populating CMENRTPT, if the value of CMONGO is \"Y\", the value of \"ONGOING\" may be used. When CMONGO refers to the Study Reference Period (defined in DM.RFSTDTC to DM.RFENDTC) the SDTM variable CMENRF should be populated. When CMONGO is used in conjunction with another time point, the SDTM variables CMENRTPT and CMENTPT should be used. Note: CMENRTPT must refer to a time-point anchor described in CMENTPT.",
        "name": "CMONGO",
        "ordinal": "25",
        "prompt": "Ongoing (as of [the study-specific time point or period])",
        "questionText": "Was the (concomitant) [medication/treatment/therapy] ongoing (as of [the study-specific time point or period])?",
        "simpleDatatype": "Char"
      },
      {
        "_links": {
          "implements": {
            "href": "/mdr/cdash/1-2/classes/Timing/fields/--ENDAT",
            "title": "Observation End Date",
            "type": "Class Variable"
          },
          "parentDomain": {
            "href": "/mdr/cdashig/2-2/domains/CM",
            "title": "Concomitant/Prior Medications",
            "type": "CDASH Domain"
          },
          "parentProduct": {
            "href": "/mdr/cdashig/2-2",
            "title": "Clinical Data Acquisition Standards Harmonization Implementation Guide for Human Clinical Trials Version 2.2",
            "type": "Implementation Guide"
          },
          "priorVersion": {
            "href": "/mdr/cdashig/2-1/domains/CM/fields/CMENDAT",
            "title": "Concomitant Meds End Date",
            "type": "Data Collection Field"
          },
          "rootItem": {
            "href": "/mdr/root/cdashig/domains/CM/fields/CMENDAT",
            "title": "Concomitant Meds End Date",
            "type": "Root Data Element"
          },
          "sdtmigDatasetMappingTargets": [
            {
              "href": "/mdr/sdtmig/3-3/datasets/CM/variables/CMENDTC",
              "title": "End Date/Time of Medication",
              "type": "SDTM Dataset Variable"
            }
          ],
          "self": {
            "href": "/mdr/cdashig/2-2/domains/CM/fields/CMENDAT",
            "title": "Concomitant Meds End Date",
            "type": "Data Collection Field"
          }
        },
        "completionInstructions": "Record the date the concomitant [medication/treatment] was stopped using this format (DD-MON-YYYY). If the subject has not stopped taking the concomitant [medication/treatment] leave this field blank.",
        "core": "R/C",
        "definition": "The date that the subject ended/stopped taking the concomitant medication/treatment/therapy, represented in an unambiguous date format (e.g., DD-MON-YYYY).",
        "implementationNotes": "The assumption is that sponsors should either have an End Date or will indicate that the medication or therapy was ongoing at the time of collection or at the end of the study. However, in cases where the end date can be determined from dates collected elsewhere in the CRF it is not necessary to include an End Date field on the CRF. For example, if all concomitant medications/treatments are administered only once during a trial, the end date will be the same as the start date.",
        "label": "Concomitant Meds End Date",
        "mappingInstructions": "This does not map directly to an SDTMIG variable. For the SDTM submission dataset, concatenate all collected CDASH END DATE and TIME components and populate the SDTMIG variable CMENDTC in ISO 8601 format.",
        "name": "CMENDAT",
        "ordinal": "26",
        "prompt": "End Date",
        "questionText": "What was the (concomitant) [medication/treatment/therapy/dose] end date?",
        "simpleDatatype": "Char"
      },
      {
        "_links": {
          "implements": {
            "href": "/mdr/cdash/1-2/classes/Timing/fields/--ENTIM",
            "title": "Observation End Time",
            "type": "Class Variable"
          },
          "parentDomain": {
            "href": "/mdr/cdashig/2-2/domains/CM",
            "title": "Concomitant/Prior Medications",
            "type": "CDASH Domain"
          },
          "parentProduct": {
            "href": "/mdr/cdashig/2-2",
            "title": "Clinical Data Acquisition Standards Harmonization Implementation Guide for Human Clinical Trials Version 2.2",
            "type": "Implementation Guide"
          },
          "priorVersion": {
            "href": "/mdr/cdashig/2-1/domains/CM/fields/CMENTIM",
            "title": "Concomitant Meds End Time",
            "type": "Data Collection Field"
          },
          "rootItem": {
            "href": "/mdr/root/cdashig/domains/CM/fields/CMENTIM",
            "title": "Concomitant Meds End Time",
            "type": "Root Data Element"
          },
          "sdtmigDatasetMappingTargets": [
            {
              "href": "/mdr/sdtmig/3-3/datasets/CM/variables/CMENDTC",
              "title": "End Date/Time of Medication",
              "type": "SDTM Dataset Variable"
            }
          ],
          "self": {
            "href": "/mdr/cdashig/2-2/domains/CM/fields/CMENTIM",
            "title": "Concomitant Meds End Time",
            "type": "Data Collection Field"
          }
        },
        "completionInstructions": "Record the time (as complete as possible) that the concomitant medication/treatment was stopped.",
        "core": "R/C",
        "definition": "The time when the subject ended/stopped taking the concomitant medication/treatment/therapy, represented in an unambiguous time format (e.g., hh:mm:ss).",
        "implementationNotes": "Recommend collecting the time a concomitant medication or treatment was ended only when a protocol or data collection scenario requires it or the subject records the end time in a diary. Typically, an end time is not collected unless the subject is under the direct care of the site at the time a concomitant medication/treatment is stopped.",
        "label": "Concomitant Meds End Time",
        "mappingInstructions": "This does not map directly to an SDTMIG variable. For the SDTM submission dataset, concatenate all collected CDASH END DATE and TIME components and populate the SDTMIG variable CMENDTC in ISO 8601 format.",
        "name": "CMENTIM",
        "ordinal": "27",
        "prompt": "End Time",
        "questionText": "What was the [medication/treatment/therapy/dose] end time?",
        "simpleDatatype": "Char"
      },
      {
        "_links": {
          "parentDomain": {
            "href": "/mdr/cdashig/2-2/domains/CM",
            "title": "Concomitant/Prior Medications",
            "type": "CDASH Domain"
          },
          "parentProduct": {
            "href": "/mdr/cdashig/2-2",
            "title": "Clinical Data Acquisition Standards Harmonization Implementation Guide for Human Clinical Trials Version 2.2",
            "type": "Implementation Guide"
          },
          "rootItem": {
            "href": "/mdr/root/cdashig/domains/CM/fields/CMRSDISC",
            "title": "Reason for Treatment Discontinuation",
            "type": "Root Data Element"
          },
          "sdtmigDatasetMappingTargets": [
            {
              "href": "/mdr/sdtmig/3-3/datasets/CM/variables/CMRSDISC",
              "title": "Reason the Intervention Was Discontinued",
              "type": "SDTM Dataset Variable"
            }
          ],
          "self": {
            "href": "/mdr/cdashig/2-2/domains/CM/fields/CMRSDISC",
            "title": "Reason for Treatment Discontinuation",
            "type": "Data Collection Field"
          }
        },
        "completionInstructions": "Record the reason the concomitant medication/treatment was stopped.",
        "core": "O",
        "definition": "The reason the treatment was discontinued.",
        "implementationNotes": "Although frequently used for prior meds, this can be used for any intervention at any timepoint. \\n When the dosing of a treatment is recorded over multiple successive records, this variable is applicable only for the (chronologically) last record for the treatment.",
        "label": "Reason for Treatment Discontinuation",
        "mappingInstructions": "Maps directly to the SDTMIG variable listed in the SDTMIG Target column.",
        "name": "CMRSDISC",
        "ordinal": "28",
        "prompt": "Reason for discontinuation of concomitant medication/treatment",
        "questionText": "What was the reason the (concomitant) [medication/treatment/therapy/ --TRT] was [discontinued/stopped/ended]?",
        "simpleDatatype": "Char"
      },
      {
        "_links": {
          "implements": {
            "href": "/mdr/cdash/1-2/classes/Interventions/fields/--DECOD",
            "title": "Standardized Treatment Name",
            "type": "Class Variable"
          },
          "parentDomain": {
            "href": "/mdr/cdashig/2-2/domains/CM",
            "title": "Concomitant/Prior Medications",
            "type": "CDASH Domain"
          },
          "parentProduct": {
            "href": "/mdr/cdashig/2-2",
            "title": "Clinical Data Acquisition Standards Harmonization Implementation Guide for Human Clinical Trials Version 2.2",
            "type": "Implementation Guide"
          },
          "priorVersion": {
            "href": "/mdr/cdashig/2-1/domains/CM/fields/CMDECOD",
            "title": "Standardized Medication Name",
            "type": "Data Collection Field"
          },
          "rootItem": {
            "href": "/mdr/root/cdashig/domains/CM/fields/CMDECOD",
            "title": "Standardized Medication Name",
            "type": "Root Data Element"
          },
          "sdtmigDatasetMappingTargets": [
            {
              "href": "/mdr/sdtmig/3-3/datasets/CM/variables/CMDECOD",
              "title": "Standardized Medication Name",
              "type": "SDTM Dataset Variable"
            }
          ],
          "self": {
            "href": "/mdr/cdashig/2-2/domains/CM/fields/CMDECOD",
            "title": "Standardized Medication Name",
            "type": "Data Collection Field"
          }
        },
        "core": "O",
        "definition": "The dictionary or sponsor-defined standardized text description of the topic variable, CMTRT, or the modified topic variable (CMMODIFY), if applicable.",
        "implementationNotes": "This field does not typically appear on the CRF. Sponsors will populate this through the coding process. Equivalent to the generic drug name in published (e.g., WHODrug, SNOMED, ICD9) or sponsor-defined dictionaries.",
        "label": "Standardized Medication Name",
        "mappingInstructions": "Maps directly to the SDTMIG variable listed in the SDTMIG Target column.",
        "name": "CMDECOD",
        "ordinal": "29",
        "simpleDatatype": "Char"
      },
      {
        "_links": {
          "implements": {
            "href": "/mdr/cdash/1-2/classes/Interventions/fields/--CLAS",
            "title": "Class",
            "type": "Class Variable"
          },
          "parentDomain": {
            "href": "/mdr/cdashig/2-2/domains/CM",
            "title": "Concomitant/Prior Medications",
            "type": "CDASH Domain"
          },
          "parentProduct": {
            "href": "/mdr/cdashig/2-2",
            "title": "Clinical Data Acquisition Standards Harmonization Implementation Guide for Human Clinical Trials Version 2.2",
            "type": "Implementation Guide"
          },
          "priorVersion": {
            "href": "/mdr/cdashig/2-1/domains/CM/fields/CMCLAS",
            "title": "CM Medication Class",
            "type": "Data Collection Field"
          },
          "rootItem": {
            "href": "/mdr/root/cdashig/domains/CM/fields/CMCLAS",
            "title": "CM Medication Class",
            "type": "Root Data Element"
          },
          "sdtmigDatasetMappingTargets": [
            {
              "href": "/mdr/sdtmig/3-3/datasets/CM/variables/CMCLAS",
              "title": "Medication Class",
              "type": "SDTM Dataset Variable"
            }
          ],
          "self": {
            "href": "/mdr/cdashig/2-2/domains/CM/fields/CMCLAS",
            "title": "CM Medication Class",
            "type": "Data Collection Field"
          }
        },
        "core": "O",
        "definition": "The class for the intervention (often obtained from a coding dictionary).",
        "implementationNotes": "This field does not typically appear on the CRF. Sponsors will populate this through the coding process. This would generally be the class used for analysis.",
        "label": "CM Medication Class",
        "mappingInstructions": "Maps directly to the SDTMIG variable listed in the SDTMIG Target column.",
        "name": "CMCLAS",
        "ordinal": "30",
        "simpleDatatype": "Char"
      },
      {
        "_links": {
          "implements": {
            "href": "/mdr/cdash/1-2/classes/Interventions/fields/--CLASCD",
            "title": "Class Code",
            "type": "Class Variable"
          },
          "parentDomain": {
            "href": "/mdr/cdashig/2-2/domains/CM",
            "title": "Concomitant/Prior Medications",
            "type": "CDASH Domain"
          },
          "parentProduct": {
            "href": "/mdr/cdashig/2-2",
            "title": "Clinical Data Acquisition Standards Harmonization Implementation Guide for Human Clinical Trials Version 2.2",
            "type": "Implementation Guide"
          },
          "priorVersion": {
            "href": "/mdr/cdashig/2-1/domains/CM/fields/CMCLASCD",
            "title": "CM Medication Class Code",
            "type": "Data Collection Field"
          },
          "rootItem": {
            "href": "/mdr/root/cdashig/domains/CM/fields/CMCLASCD",
            "title": "CM Medication Class Code",
            "type": "Root Data Element"
          },
          "sdtmigDatasetMappingTargets": [
            {
              "href": "/mdr/sdtmig/3-3/datasets/CM/variables/CMCLASCD",
              "title": "Medication Class Code",
              "type": "SDTM Dataset Variable"
            }
          ],
          "self": {
            "href": "/mdr/cdashig/2-2/domains/CM/fields/CMCLASCD",
            "title": "CM Medication Class Code",
            "type": "Data Collection Field"
          }
        },
        "core": "O",
        "definition": "The assigned dictionary code for the class for the intervention.",
        "implementationNotes": "This field does not typically appear on the CRF. Sponsors will populate this through the coding process. This would generally be the class code used for analysis.",
        "label": "CM Medication Class Code",
        "mappingInstructions": "Maps directly to the SDTMIG variable listed in the SDTMIG Target column.",
        "name": "CMCLASCD",
        "ordinal": "31",
        "simpleDatatype": "Num"
      },
      {
        "_links": {
          "implements": {
            "href": "/mdr/cdash/1-2/classes/Interventions/fields/--ATC1",
            "title": "ATC Level 1 Description",
            "type": "Class Variable"
          },
          "parentDomain": {
            "href": "/mdr/cdashig/2-2/domains/CM",
            "title": "Concomitant/Prior Medications",
            "type": "CDASH Domain"
          },
          "parentProduct": {
            "href": "/mdr/cdashig/2-2",
            "title": "Clinical Data Acquisition Standards Harmonization Implementation Guide for Human Clinical Trials Version 2.2",
            "type": "Implementation Guide"
          },
          "priorVersion": {
            "href": "/mdr/cdashig/2-1/domains/CM/fields/CMATC1",
            "title": "ATC Level 1 Description",
            "type": "Data Collection Field"
          },
          "rootItem": {
            "href": "/mdr/root/cdashig/domains/CM/fields/CMATC1",
            "title": "ATC Level 1 Description",
            "type": "Root Data Element"
          },
          "sdtmigDatasetMappingTargets": [
            {
              "href": "/mdr/sdtmig/3-3/datasets/SUPPQUAL/variables/QVAL",
              "title": "Data Value",
              "type": "SDTM Dataset Variable"
            }
          ],
          "self": {
            "href": "/mdr/cdashig/2-2/domains/CM/fields/CMATC1",
            "title": "ATC Level 1 Description",
            "type": "Data Collection Field"
          }
        },
        "core": "O",
        "definition": "Dictionary text description of the first level of hierarchy within the Anatomical Therapeutic Chemical (ATC) classification system; indicates the anatomical main group.",
        "implementationNotes": "This field does not typically appear on the CRF. This is populated through the sponsor's coding process.",
        "label": "ATC Level 1 Description",
        "mappingInstructions": "This does not map directly to an SDTMIG variable. This information could be submitted in a SUPPCM dataset as the value of SUPPCM.QVAL where SUPPCM.QNAM=\"CMATC1\" and SUPPCM.QLABEL=\"ATC Level 1 Description\". Sponsors should include an Origin column in the SUPPQ dataset to indicate that the data was \"ASSIGNED\". Refer to the current SDTM and SDTMIG for instructions on placement of non-standard variables (NSVs) in SDTM domains.",
        "name": "CMATC1",
        "ordinal": "32",
        "simpleDatatype": "Char"
      },
      {
        "_links": {
          "implements": {
            "href": "/mdr/cdash/1-2/classes/Interventions/fields/--ATC1CD",
            "title": "ATC Level 1 Code",
            "type": "Class Variable"
          },
          "parentDomain": {
            "href": "/mdr/cdashig/2-2/domains/CM",
            "title": "Concomitant/Prior Medications",
            "type": "CDASH Domain"
          },
          "parentProduct": {
            "href": "/mdr/cdashig/2-2",
            "title": "Clinical Data Acquisition Standards Harmonization Implementation Guide for Human Clinical Trials Version 2.2",
            "type": "Implementation Guide"
          },
          "priorVersion": {
            "href": "/mdr/cdashig/2-1/domains/CM/fields/CMATC1CD",
            "title": "ATC Level 1 Code",
            "type": "Data Collection Field"
          },
          "rootItem": {
            "href": "/mdr/root/cdashig/domains/CM/fields/CMATC1CD",
            "title": "ATC Level 1 Code",
            "type": "Root Data Element"
          },
          "sdtmigDatasetMappingTargets": [
            {
              "href": "/mdr/sdtmig/3-3/datasets/SUPPQUAL/variables/QVAL",
              "title": "Data Value",
              "type": "SDTM Dataset Variable"
            }
          ],
          "self": {
            "href": "/mdr/cdashig/2-2/domains/CM/fields/CMATC1CD",
            "title": "ATC Level 1 Code",
            "type": "Data Collection Field"
          }
        },
        "core": "O",
        "definition": "Dictionary code denoting the first level of hierarchy within the ATC classification system; indicates the anatomical main group.",
        "implementationNotes": "This field does not typically appear on the CRF. This is populated through the sponsor's coding process.",
        "label": "ATC Level 1 Code",
        "mappingInstructions": "This does not map directly to an SDTMIG variable. This information could be submitted in a SUPPCM dataset as the value of SUPPCM.QVAL where SUPPCM.QNAM =\"MATC1CD\" and SUPPCM.QLABEL=\"ATC Level 1 Code\". Sponsors should include an Origin column in the SUPPQ dataset to indicate that the data was \"ASSIGNED\".",
        "name": "CMATC1CD",
        "ordinal": "33",
        "simpleDatatype": "Num"
      },
      {
        "_links": {
          "implements": {
            "href": "/mdr/cdash/1-2/classes/Interventions/fields/--ATC2",
            "title": "ATC Level 2 Description",
            "type": "Class Variable"
          },
          "parentDomain": {
            "href": "/mdr/cdashig/2-2/domains/CM",
            "title": "Concomitant/Prior Medications",
            "type": "CDASH Domain"
          },
          "parentProduct": {
            "href": "/mdr/cdashig/2-2",
            "title": "Clinical Data Acquisition Standards Harmonization Implementation Guide for Human Clinical Trials Version 2.2",
            "type": "Implementation Guide"
          },
          "priorVersion": {
            "href": "/mdr/cdashig/2-1/domains/CM/fields/CMATC2",
            "title": "ATC Level 2 Description",
            "type": "Data Collection Field"
          },
          "rootItem": {
            "href": "/mdr/root/cdashig/domains/CM/fields/CMATC2",
            "title": "ATC Level 2 Description",
            "type": "Root Data Element"
          },
          "sdtmigDatasetMappingTargets": [
            {
              "href": "/mdr/sdtmig/3-3/datasets/SUPPQUAL/variables/QVAL",
              "title": "Data Value",
              "type": "SDTM Dataset Variable"
            }
          ],
          "self": {
            "href": "/mdr/cdashig/2-2/domains/CM/fields/CMATC2",
            "title": "ATC Level 2 Description",
            "type": "Data Collection Field"
          }
        },
        "core": "O",
        "definition": "Dictionary text description for the second level of hierarchy within the ATC classification system; indicates the therapeutic main group.",
        "implementationNotes": "This field does not typically appear on the CRF. This is populated through the sponsor's coding process.",
        "label": "ATC Level 2 Description",
        "mappingInstructions": "This does not map directly to an SDTMIG variable. This information could be submitted in a SUPPCM dataset as the value of SUPPCM.QVAL where SUPPCM.QNAM=\"CMATC2\" and SUPPCM.QLABEL=\"ATC Level 2 Description\". Sponsors should include an Origin column in the SUPPQ dataset to indicate that the data was \"ASSIGNED\". Refer to the current SDTM and SDTMIG for instructions on placement of NSVs in SDTM domains.",
        "name": "CMATC2",
        "ordinal": "34",
        "simpleDatatype": "Char"
      },
      {
        "_links": {
          "implements": {
            "href": "/mdr/cdash/1-2/classes/Interventions/fields/--ATC2CD",
            "title": "ATC Level 2 Code",
            "type": "Class Variable"
          },
          "parentDomain": {
            "href": "/mdr/cdashig/2-2/domains/CM",
            "title": "Concomitant/Prior Medications",
            "type": "CDASH Domain"
          },
          "parentProduct": {
            "href": "/mdr/cdashig/2-2",
            "title": "Clinical Data Acquisition Standards Harmonization Implementation Guide for Human Clinical Trials Version 2.2",
            "type": "Implementation Guide"
          },
          "priorVersion": {
            "href": "/mdr/cdashig/2-1/domains/CM/fields/CMATC2CD",
            "title": "ATC Level 2 Code",
            "type": "Data Collection Field"
          },
          "rootItem": {
            "href": "/mdr/root/cdashig/domains/CM/fields/CMATC2CD",
            "title": "ATC Level 2 Code",
            "type": "Root Data Element"
          },
          "sdtmigDatasetMappingTargets": [
            {
              "href": "/mdr/sdtmig/3-3/datasets/SUPPQUAL/variables/QVAL",
              "title": "Data Value",
              "type": "SDTM Dataset Variable"
            }
          ],
          "self": {
            "href": "/mdr/cdashig/2-2/domains/CM/fields/CMATC2CD",
            "title": "ATC Level 2 Code",
            "type": "Data Collection Field"
          }
        },
        "core": "O",
        "definition": "Dictionary code denoting the second level of hierarchy within the ATC classification system; indicates the therapeutic main group.",
        "implementationNotes": "This field does not typically appear on the CRF. This is populated through the sponsor's coding process.",
        "label": "ATC Level 2 Code",
        "mappingInstructions": "This does not map directly to an SDTMIG variable. This information could be submitted in a SUPPCM dataset as the value of SUPPCM.QVAL where SUPPCM.QNAM=\"CMATC2CD\" and SUPPCM.QLABEL=\"ATC Level 2 Code\". Sponsors should include an Origin column in the SUPPQ dataset to indicate that the data was \"ASSIGNED\".",
        "name": "CMATC2CD",
        "ordinal": "35",
        "simpleDatatype": "Num"
      },
      {
        "_links": {
          "implements": {
            "href": "/mdr/cdash/1-2/classes/Interventions/fields/--ATC3",
            "title": "ATC Level 3 Description",
            "type": "Class Variable"
          },
          "parentDomain": {
            "href": "/mdr/cdashig/2-2/domains/CM",
            "title": "Concomitant/Prior Medications",
            "type": "CDASH Domain"
          },
          "parentProduct": {
            "href": "/mdr/cdashig/2-2",
            "title": "Clinical Data Acquisition Standards Harmonization Implementation Guide for Human Clinical Trials Version 2.2",
            "type": "Implementation Guide"
          },
          "priorVersion": {
            "href": "/mdr/cdashig/2-1/domains/CM/fields/CMATC3",
            "title": "ATC Level 3 Description",
            "type": "Data Collection Field"
          },
          "rootItem": {
            "href": "/mdr/root/cdashig/domains/CM/fields/CMATC3",
            "title": "ATC Level 3 Description",
            "type": "Root Data Element"
          },
          "sdtmigDatasetMappingTargets": [
            {
              "href": "/mdr/sdtmig/3-3/datasets/SUPPQUAL/variables/QVAL",
              "title": "Data Value",
              "type": "SDTM Dataset Variable"
            }
          ],
          "self": {
            "href": "/mdr/cdashig/2-2/domains/CM/fields/CMATC3",
            "title": "ATC Level 3 Description",
            "type": "Data Collection Field"
          }
        },
        "core": "O",
        "definition": "Dictionary text description of the third level of hierarchy within the ATC classification system; indicates the therapeutic/pharmacological subgroup.",
        "implementationNotes": "This field does not typically appear on the CRF. This is populated through the sponsor's coding process.",
        "label": "ATC Level 3 Description",
        "mappingInstructions": "This does not map directly to an SDTMIG variable. This information could be submitted in a SUPPCM dataset as the value of SUPPCM.QVAL where SUPPCM.QNAM=\"CMATC3\" and SUPPCM.QLABEL=\"ATC Level 3 Description\". Sponsors should include an Origin column in the SUPPQ dataset to indicate that the data was \"ASSIGNED\". Refer to the current SDTM and SDTMIG for instructions on placement of NSVs in SDTM domains.",
        "name": "CMATC3",
        "ordinal": "36",
        "simpleDatatype": "Char"
      },
      {
        "_links": {
          "implements": {
            "href": "/mdr/cdash/1-2/classes/Interventions/fields/--ATC3CD",
            "title": "ATC Level 3 Code",
            "type": "Class Variable"
          },
          "parentDomain": {
            "href": "/mdr/cdashig/2-2/domains/CM",
            "title": "Concomitant/Prior Medications",
            "type": "CDASH Domain"
          },
          "parentProduct": {
            "href": "/mdr/cdashig/2-2",
            "title": "Clinical Data Acquisition Standards Harmonization Implementation Guide for Human Clinical Trials Version 2.2",
            "type": "Implementation Guide"
          },
          "priorVersion": {
            "href": "/mdr/cdashig/2-1/domains/CM/fields/CMATC3CD",
            "title": "ATC Level 3 Code",
            "type": "Data Collection Field"
          },
          "rootItem": {
            "href": "/mdr/root/cdashig/domains/CM/fields/CMATC3CD",
            "title": "ATC Level 3 Code",
            "type": "Root Data Element"
          },
          "sdtmigDatasetMappingTargets": [
            {
              "href": "/mdr/sdtmig/3-3/datasets/SUPPQUAL/variables/QVAL",
              "title": "Data Value",
              "type": "SDTM Dataset Variable"
            }
          ],
          "self": {
            "href": "/mdr/cdashig/2-2/domains/CM/fields/CMATC3CD",
            "title": "ATC Level 3 Code",
            "type": "Data Collection Field"
          }
        },
        "core": "O",
        "definition": "Dictionary code denoting the third level of hierarchy within the ATC classification system; indicates the therapeutic/pharmacological subgroup.",
        "implementationNotes": "This field does not typically appear on the CRF. This is populated through the sponsor's coding process.",
        "label": "ATC Level 3 Code",
        "mappingInstructions": "This does not map directly to an SDTMIG variable. This information could be submitted in a SUPPCM dataset as the value of SUPPCM.QVAL where SUPPCM.QNAM=\"CMATC3CD\" and SUPPCM.QLABEL=\"ATC Level 3 Code\". Sponsors should include an Origin column in the SUPPQ dataset to indicate that the data was \"ASSIGNED\".",
        "name": "CMATC3CD",
        "ordinal": "37",
        "simpleDatatype": "Num"
      },
      {
        "_links": {
          "implements": {
            "href": "/mdr/cdash/1-2/classes/Interventions/fields/--ATC4",
            "title": "ATC Level 4 Description",
            "type": "Class Variable"
          },
          "parentDomain": {
            "href": "/mdr/cdashig/2-2/domains/CM",
            "title": "Concomitant/Prior Medications",
            "type": "CDASH Domain"
          },
          "parentProduct": {
            "href": "/mdr/cdashig/2-2",
            "title": "Clinical Data Acquisition Standards Harmonization Implementation Guide for Human Clinical Trials Version 2.2",
            "type": "Implementation Guide"
          },
          "priorVersion": {
            "href": "/mdr/cdashig/2-1/domains/CM/fields/CMATC4",
            "title": "ATC Level 4 Description",
            "type": "Data Collection Field"
          },
          "rootItem": {
            "href": "/mdr/root/cdashig/domains/CM/fields/CMATC4",
            "title": "ATC Level 4 Description",
            "type": "Root Data Element"
          },
          "sdtmigDatasetMappingTargets": [
            {
              "href": "/mdr/sdtmig/3-3/datasets/SUPPQUAL/variables/QVAL",
              "title": "Data Value",
              "type": "SDTM Dataset Variable"
            }
          ],
          "self": {
            "href": "/mdr/cdashig/2-2/domains/CM/fields/CMATC4",
            "title": "ATC Level 4 Description",
            "type": "Data Collection Field"
          }
        },
        "core": "O",
        "definition": "Dictionary text description of the fourth level of hierarchy within the ATC classification system; indicates the chemical/therapeutic/pharmacological subgroup.",
        "implementationNotes": "This field does not typically appear on the CRF. This is populated through the sponsor's coding process.",
        "label": "ATC Level 4 Description",
        "mappingInstructions": "This does not map directly to an SDTMIG variable. This information could be submitted in a SUPPCM dataset as the value of SUPPCM.QVAL where SUPPCM.QNAM=\"CMATC4\" and SUPPCM.QLABEL=\"ATC Level 4 Description\". Sponsors should include an Origin column in the SUPPQ dataset to indicate that the data was \"ASSIGNED\". Refer to the current SDTM and SDTMIG for instructions on placement of NSVs in SDTM domains.",
        "name": "CMATC4",
        "ordinal": "38",
        "simpleDatatype": "Char"
      },
      {
        "_links": {
          "implements": {
            "href": "/mdr/cdash/1-2/classes/Interventions/fields/--ATC4CD",
            "title": "ATC Level 4 Code",
            "type": "Class Variable"
          },
          "parentDomain": {
            "href": "/mdr/cdashig/2-2/domains/CM",
            "title": "Concomitant/Prior Medications",
            "type": "CDASH Domain"
          },
          "parentProduct": {
            "href": "/mdr/cdashig/2-2",
            "title": "Clinical Data Acquisition Standards Harmonization Implementation Guide for Human Clinical Trials Version 2.2",
            "type": "Implementation Guide"
          },
          "priorVersion": {
            "href": "/mdr/cdashig/2-1/domains/CM/fields/CMATC4CD",
            "title": "ATC Level 4 Code",
            "type": "Data Collection Field"
          },
          "rootItem": {
            "href": "/mdr/root/cdashig/domains/CM/fields/CMATC4CD",
            "title": "ATC Level 4 Code",
            "type": "Root Data Element"
          },
          "sdtmigDatasetMappingTargets": [
            {
              "href": "/mdr/sdtmig/3-3/datasets/SUPPQUAL/variables/QVAL",
              "title": "Data Value",
              "type": "SDTM Dataset Variable"
            }
          ],
          "self": {
            "href": "/mdr/cdashig/2-2/domains/CM/fields/CMATC4CD",
            "title": "ATC Level 4 Code",
            "type": "Data Collection Field"
          }
        },
        "core": "O",
        "definition": "Dictionary code denoting the fourth level of hierarchy within the ATC classification system; indicates the chemical/therapeutic/pharmacological subgroup.",
        "implementationNotes": "This field does not typically appear on the CRF. This is populated through the sponsor's coding process.",
        "label": "ATC Level 4 Code",
        "mappingInstructions": "This does not map directly to an SDTMIG variable. This information could be submitted in a SUPPCM dataset as the value of SUPPCM.QVAL where SUPPCM.QNAM=\"CMATC4CD\" and SUPPCM.QLABEL=\"ATC Level 4 Code\". Sponsors should include an Origin column in the SUPPQ dataset to indicate that the data was \"ASSIGNED\".",
        "name": "CMATC4CD",
        "ordinal": "39",
        "simpleDatatype": "Num"
      },
      {
        "_links": {
          "implements": {
            "href": "/mdr/cdash/1-2/classes/Interventions/fields/--ATC5",
            "title": "ATC Level 5 Description",
            "type": "Class Variable"
          },
          "parentDomain": {
            "href": "/mdr/cdashig/2-2/domains/CM",
            "title": "Concomitant/Prior Medications",
            "type": "CDASH Domain"
          },
          "parentProduct": {
            "href": "/mdr/cdashig/2-2",
            "title": "Clinical Data Acquisition Standards Harmonization Implementation Guide for Human Clinical Trials Version 2.2",
            "type": "Implementation Guide"
          },
          "priorVersion": {
            "href": "/mdr/cdashig/2-1/domains/CM/fields/CMATC5",
            "title": "ATC Level 5 Description",
            "type": "Data Collection Field"
          },
          "rootItem": {
            "href": "/mdr/root/cdashig/domains/CM/fields/CMATC5",
            "title": "ATC Level 5 Description",
            "type": "Root Data Element"
          },
          "sdtmigDatasetMappingTargets": [
            {
              "href": "/mdr/sdtmig/3-3/datasets/SUPPQUAL/variables/QVAL",
              "title": "Data Value",
              "type": "SDTM Dataset Variable"
            }
          ],
          "self": {
            "href": "/mdr/cdashig/2-2/domains/CM/fields/CMATC5",
            "title": "ATC Level 5 Description",
            "type": "Data Collection Field"
          }
        },
        "core": "O",
        "definition": "Dictionary text description of the fifth level of hierarchy within the ATC classification system; indicates the chemical substance.",
        "implementationNotes": "This field does not typically appear on the CRF. This is populated through the sponsor's coding process.",
        "label": "ATC Level 5 Description",
        "mappingInstructions": "This does not map directly to an SDTMIG variable. This information could be submitted in a SUPPCM dataset as the value of SUPPCM.QVAL where SUPPCM.QNAM=\"CMATC5\" and SUPPCM.QLABEL=\"ATC Level 5 Description\". Sponsors should include an Origin column in the SUPPQ dataset to indicate that the data was \"ASSIGNED\". Refer to the current SDTM and SDTMIG for instructions on placement of NSVs in SDTM domains.",
        "name": "CMATC5",
        "ordinal": "40",
        "simpleDatatype": "Char"
      },
      {
        "_links": {
          "implements": {
            "href": "/mdr/cdash/1-2/classes/Interventions/fields/--ATC5CD",
            "title": "ATC Level 5 Code",
            "type": "Class Variable"
          },
          "parentDomain": {
            "href": "/mdr/cdashig/2-2/domains/CM",
            "title": "Concomitant/Prior Medications",
            "type": "CDASH Domain"
          },
          "parentProduct": {
            "href": "/mdr/cdashig/2-2",
            "title": "Clinical Data Acquisition Standards Harmonization Implementation Guide for Human Clinical Trials Version 2.2",
            "type": "Implementation Guide"
          },
          "priorVersion": {
            "href": "/mdr/cdashig/2-1/domains/CM/fields/CMATC5CD",
            "title": "ATC Level 5 Code",
            "type": "Data Collection Field"
          },
          "rootItem": {
            "href": "/mdr/root/cdashig/domains/CM/fields/CMATC5CD",
            "title": "ATC Level 5 Code",
            "type": "Root Data Element"
          },
          "sdtmigDatasetMappingTargets": [
            {
              "href": "/mdr/sdtmig/3-3/datasets/SUPPQUAL/variables/QVAL",
              "title": "Data Value",
              "type": "SDTM Dataset Variable"
            }
          ],
          "self": {
            "href": "/mdr/cdashig/2-2/domains/CM/fields/CMATC5CD",
            "title": "ATC Level 5 Code",
            "type": "Data Collection Field"
          }
        },
        "core": "O",
        "definition": "Dictionary code denoting the fifth level of hierarchy within the ATC classification system; indicates the chemical substance.",
        "implementationNotes": "This field does not typically appear on the CRF. This is populated through the sponsor's coding process.",
        "label": "ATC Level 5 Code",
        "mappingInstructions": "This does not map directly to an SDTMIG variable. This information could be submitted in a SUPPCM dataset as the value of SUPPCM.QVAL where SUPPCM.QNAM=\"CMATC5CD\" and SUPPCM.QLABEL=\"ATC Level 5 Code\". Sponsors should include an Origin column in the SUPPQ dataset to indicate that the data was \"ASSIGNED\".",
        "name": "CMATC5CD",
        "ordinal": "41",
        "simpleDatatype": "Num"
      }
    ],
    "label": "Concomitant/Prior Medications",
    "name": "CM",
    "ordinal": "4",
    "_domainCode": "CM",
    "_title": "Concomitant/Prior Medications"
  },
  {
    "_links": {
      "parentClass": {
        "href": "/mdr/cdashig/2-2/classes/Interventions",
        "title": "Interventions",
        "type": "Class"
      },
      "parentProduct": {
        "href": "/mdr/cdashig/2-2",
        "title": "Clinical Data Acquisition Standards Harmonization Implementation Guide for Human Clinical Trials Version 2.2",
        "type": "Implementation Guide"
      },
      "priorVersion": {
        "href": "/mdr/cdashig/2-1/domains/EC",
        "title": "Exposure as Collected",
        "type": "CDASH Domain"
      },
      "self": {
        "href": "/mdr/cdashig/2-2/domains/EC",
        "title": "Exposure as Collected",
        "type": "CDASH Domain"
      }
    },
    "description": "An interventions domain that contains information about protocol-specified study treatment administrations, as collected. (Source: CDISC Controlled Terminology, DOMAIN, C117466, 2021-06-25)",
    "fields": [
      {
        "_links": {
          "implements": {
            "href": "/mdr/cdash/1-2/classes/Identifiers/fields/STUDYID",
            "title": "Study Identifier",
            "type": "Class Variable"
          },
          "parentDomain": {
            "href": "/mdr/cdashig/2-2/domains/EC",
            "title": "Exposure as Collected",
            "type": "CDASH Domain"
          },
          "parentProduct": {
            "href": "/mdr/cdashig/2-2",
            "title": "Clinical Data Acquisition Standards Harmonization Implementation Guide for Human Clinical Trials Version 2.2",
            "type": "Implementation Guide"
          },
          "priorVersion": {
            "href": "/mdr/cdashig/2-1/domains/EC/fields/STUDYID",
            "title": "Study Identifier",
            "type": "Data Collection Field"
          },
          "rootItem": {
            "href": "/mdr/root/cdashig/domains/EC/fields/STUDYID",
            "title": "Study Identifier",
            "type": "Root Data Element"
          },
          "sdtmigDatasetMappingTargets": [
            {
              "href": "/mdr/sdtmig/3-3/datasets/EC/variables/STUDYID",
              "title": "Study Identifier",
              "type": "SDTM Dataset Variable"
            }
          ],
          "self": {
            "href": "/mdr/cdashig/2-2/domains/EC/fields/STUDYID",
            "title": "Study Identifier",
            "type": "Data Collection Field"
          }
        },
        "core": "HR",
        "definition": "A unique identifier for a study.",
        "implementationNotes": "Although this field is not typically captured on a CRF, it should be displayed clearly on the CRF and/or in the EDC system. This field can be included in the database or populated during SDTM-based dataset creation before submission.",
        "label": "Study Identifier",
        "mappingInstructions": "Maps directly to the SDTMIG variable listed in the SDTMIG Target column.",
        "name": "STUDYID",
        "ordinal": "1",
        "prompt": "[Protocol/Study]",
        "questionText": "What is the study identifier?",
        "simpleDatatype": "Char"
      },
      {
        "_links": {
          "implements": {
            "href": "/mdr/cdash/1-2/classes/Identifiers/fields/SITEID",
            "title": "Study Site Identifier",
            "type": "Class Variable"
          },
          "parentDomain": {
            "href": "/mdr/cdashig/2-2/domains/EC",
            "title": "Exposure as Collected",
            "type": "CDASH Domain"
          },
          "parentProduct": {
            "href": "/mdr/cdashig/2-2",
            "title": "Clinical Data Acquisition Standards Harmonization Implementation Guide for Human Clinical Trials Version 2.2",
            "type": "Implementation Guide"
          },
          "priorVersion": {
            "href": "/mdr/cdashig/2-1/domains/EC/fields/SITEID",
            "title": "Study Site Identifier",
            "type": "Data Collection Field"
          },
          "rootItem": {
            "href": "/mdr/root/cdashig/domains/EC/fields/SITEID",
            "title": "Study Site Identifier",
            "type": "Root Data Element"
          },
          "sdtmigDatasetMappingTargets": [
            {
              "href": "/mdr/sdtmig/3-3/datasets/DM/variables/SITEID",
              "title": "Study Site Identifier",
              "type": "SDTM Dataset Variable"
            }
          ],
          "self": {
            "href": "/mdr/cdashig/2-2/domains/EC/fields/SITEID",
            "title": "Study Site Identifier",
            "type": "Data Collection Field"
          }
        },
        "core": "HR",
        "definition": "A unique identifier for a site within a study.",
        "implementationNotes": "Paper: This is typically pre-printed in the header of each CRF page for single-site studies. For studies with multiple sites, this field may be left blank so that the number can be recorded by the site, or it may be pre-printed on the CRFs that are shipped to each site. \\n EDC: This should be pre-populated.",
        "label": "Study Site Identifier",
        "mappingInstructions": "Maps directly to the SDTMIG variable listed in the SDTMIG Target column.",
        "name": "SITEID",
        "ordinal": "2",
        "prompt": "Site (Identifier)",
        "questionText": "What is the site identifier?",
        "simpleDatatype": "Char"
      },
      {
        "_links": {
          "implements": {
            "href": "/mdr/cdash/1-2/classes/Identifiers/fields/SUBJID",
            "title": "Subject Identifier for the Study",
            "type": "Class Variable"
          },
          "parentDomain": {
            "href": "/mdr/cdashig/2-2/domains/EC",
            "title": "Exposure as Collected",
            "type": "CDASH Domain"
          },
          "parentProduct": {
            "href": "/mdr/cdashig/2-2",
            "title": "Clinical Data Acquisition Standards Harmonization Implementation Guide for Human Clinical Trials Version 2.2",
            "type": "Implementation Guide"
          },
          "priorVersion": {
            "href": "/mdr/cdashig/2-1/domains/EC/fields/SUBJID",
            "title": "Subject Identifier for the Study",
            "type": "Data Collection Field"
          },
          "rootItem": {
            "href": "/mdr/root/cdashig/domains/EC/fields/SUBJID",
            "title": "Subject Identifier for the Study",
            "type": "Root Data Element"
          },
          "sdtmigDatasetMappingTargets": [
            {
              "href": "/mdr/sdtmig/3-3/datasets/DM/variables/SUBJID",
              "title": "Subject Identifier for the Study",
              "type": "SDTM Dataset Variable"
            }
          ],
          "self": {
            "href": "/mdr/cdashig/2-2/domains/EC/fields/SUBJID",
            "title": "Subject Identifier for the Study",
            "type": "Data Collection Field"
          }
        },
        "completionInstructions": "Record the identifier for the subject.",
        "core": "HR",
        "definition": "A unique subject identifier within a site and a study.",
        "implementationNotes": "Paper: This is typically recorded in the header of each CRF page. \\n EDC: The subject identifiers may be system generated. \\n This CDASH variable is typically collected in all CDASH domains. However, this CDASH variable is populated only in the SDTMIG DM domain. For more information, refer to the SDTMIG.",
        "label": "Subject Identifier for the Study",
        "mappingInstructions": "Maps directly to the SDTMIG variable listed in the SDTMIG Target column.",
        "name": "SUBJID",
        "ordinal": "3",
        "prompt": "[Subject/Participant] (Identifier)",
        "questionText": "What [is/was] the (study) [subject/participant] identifier?",
        "simpleDatatype": "Char"
      },
      {
        "_links": {
          "codelist": [
            {
              "href": "/mdr/root/ct/sdtmct/codelists/C99079",
              "title": "Version-agnostic anchor resource for codelist C99079",
              "type": "Root Value Domain"
            }
          ],
          "implements": {
            "href": "/mdr/cdash/1-2/classes/Timing/fields/EPOCH",
            "title": "Epoch",
            "type": "Class Variable"
          },
          "parentDomain": {
            "href": "/mdr/cdashig/2-2/domains/EC",
            "title": "Exposure as Collected",
            "type": "CDASH Domain"
          },
          "parentProduct": {
            "href": "/mdr/cdashig/2-2",
            "title": "Clinical Data Acquisition Standards Harmonization Implementation Guide for Human Clinical Trials Version 2.2",
            "type": "Implementation Guide"
          },
          "priorVersion": {
            "href": "/mdr/cdashig/2-1/domains/EC/fields/EPOCH",
            "title": "Epoch",
            "type": "Data Collection Field"
          },
          "rootItem": {
            "href": "/mdr/root/cdashig/domains/EC/fields/EPOCH",
            "title": "Epoch",
            "type": "Root Data Element"
          },
          "sdtmigDatasetMappingTargets": [
            {
              "href": "/mdr/sdtmig/3-3/datasets/EC/variables/EPOCH",
              "title": "Epoch",
              "type": "SDTM Dataset Variable"
            }
          ],
          "self": {
            "href": "/mdr/cdashig/2-2/domains/EC/fields/EPOCH",
            "title": "Epoch",
            "type": "Data Collection Field"
          }
        },
        "completionInstructions": "[protocol specific]",
        "core": "R/C",
        "definition": "Name of the trial epoch with which this element of the arm is associated.",
        "implementationNotes": "If the same information is collected more than once in different periods/parts of a study (e.g., Disposition), EPOCH may be needed to differentiate them. Typically, the trial epoch will be pre-printed on the CRF as the title of the page. See SDTMIG for further information regarding EPOCH.",
        "label": "Epoch",
        "mappingInstructions": "Maps directly to the SDTMIG variable listed in the SDTMIG Target column.",
        "name": "EPOCH",
        "ordinal": "4",
        "prompt": "[Epoch](Period/Phase/Sponsor-defined phrase)",
        "questionText": "What is the trial epoch?",
        "simpleDatatype": "Char"
      },
      {
        "_links": {
          "codelist": [
            {
              "href": "/mdr/root/ct/sdtmct/codelists/C66742",
              "title": "Version-agnostic anchor resource for codelist C66742",
              "type": "Root Value Domain"
            }
          ],
          "implements": {
            "href": "/mdr/cdash/1-2/classes/Interventions/fields/--YN",
            "title": "Any [Intervention]",
            "type": "Class Variable"
          },
          "parentDomain": {
            "href": "/mdr/cdashig/2-2/domains/EC",
            "title": "Exposure as Collected",
            "type": "CDASH Domain"
          },
          "parentProduct": {
            "href": "/mdr/cdashig/2-2",
            "title": "Clinical Data Acquisition Standards Harmonization Implementation Guide for Human Clinical Trials Version 2.2",
            "type": "Implementation Guide"
          },
          "priorVersion": {
            "href": "/mdr/cdashig/2-1/domains/EC/fields/ECYN",
            "title": "Any Study Treatment Taken",
            "type": "Data Collection Field"
          },
          "rootItem": {
            "href": "/mdr/root/cdashig/domains/EC/fields/ECYN",
            "title": "Any Study Treatment Taken",
            "type": "Root Data Element"
          },
          "self": {
            "href": "/mdr/cdashig/2-2/domains/EC/fields/ECYN",
            "title": "Any Study Treatment Taken",
            "type": "Data Collection Field"
          }
        },
        "completionInstructions": "Indicate if the subject took any study medications. If Yes, include the appropriate details where indicated.",
        "core": "O",
        "definition": "An indication of whether the subject took the study medication/ treatment.",
        "implementationNotes": "The intent/purpose of collecting this field is to help with data cleaning and monitoring. It provides verification that all other fields on the CRF were deliberately left blank. The ECYN is meant to indicate that the exposure as collected form should be completed or inserted into the case book. ECOCCUR would be used when the actual drug name is pre-printed on the CRF. While these might be equivalent in a single-drug study, there are differences in how they would be used in most trials. Therefore, it does not map into the SDTM variable ECOCCUR; ECOCCUR indicates whether the subject was actually administered treatment/medication. If actual treatment data is available (ECYN =\"Y\"), ECOCCUR may be populated based on whether subject was actually administered treatment/medication.",
        "label": "Any Study Treatment Taken",
        "mappingInstructions": "Does not map to an SDTMIG variable. The SDTM annotated CRF indicates that this field is NOT SUBMITTED.",
        "name": "ECYN",
        "ordinal": "5",
        "prompt": "Any Study Treatments",
        "questionText": "Were any[study treatment/dose] taken?",
        "simpleDatatype": "Char"
      },
      {
        "_links": {
          "implements": {
            "href": "/mdr/cdash/1-2/classes/Interventions/fields/--CAT",
            "title": "Category",
            "type": "Class Variable"
          },
          "parentDomain": {
            "href": "/mdr/cdashig/2-2/domains/EC",
            "title": "Exposure as Collected",
            "type": "CDASH Domain"
          },
          "parentProduct": {
            "href": "/mdr/cdashig/2-2",
            "title": "Clinical Data Acquisition Standards Harmonization Implementation Guide for Human Clinical Trials Version 2.2",
            "type": "Implementation Guide"
          },
          "priorVersion": {
            "href": "/mdr/cdashig/2-1/domains/EC/fields/ECCAT",
            "title": "Category of Treatment",
            "type": "Data Collection Field"
          },
          "rootItem": {
            "href": "/mdr/root/cdashig/domains/EC/fields/ECCAT",
            "title": "Category of Treatment",
            "type": "Root Data Element"
          },
          "sdtmigDatasetMappingTargets": [
            {
              "href": "/mdr/sdtmig/3-3/datasets/EC/variables/ECCAT",
              "title": "Category of Treatment",
              "type": "SDTM Dataset Variable"
            }
          ],
          "self": {
            "href": "/mdr/cdashig/2-2/domains/EC/fields/ECCAT",
            "title": "Category of Treatment",
            "type": "Data Collection Field"
          }
        },
        "completionInstructions": "Record the study treatment category, if not pre-printed on the CRF.",
        "core": "O",
        "definition": "A grouping of topic-variable values based on user-defined characteristics.",
        "implementationNotes": "Sponsor-defined controlled terminology. This would most commonly be either a heading or a pre-printed category value on the CRF, and not a question to which the site would provide an answer. If a question is asked, the response would typically be a sponsor-defined codelist. If the form is laid out as a grid, then words such as \"Category\" can be included as the column heading.",
        "label": "Category of Treatment",
        "mappingInstructions": "Maps directly to the SDTMIG variable listed in the SDTMIG Target column.",
        "name": "ECCAT",
        "ordinal": "6",
        "prompt": "[Study Treatment Category]; NULL",
        "questionText": "What is the category of the [study treatment/dose]?",
        "simpleDatatype": "Char"
      },
      {
        "_links": {
          "implements": {
            "href": "/mdr/cdash/1-2/classes/Interventions/fields/--SCAT",
            "title": "Subcategory",
            "type": "Class Variable"
          },
          "parentDomain": {
            "href": "/mdr/cdashig/2-2/domains/EC",
            "title": "Exposure as Collected",
            "type": "CDASH Domain"
          },
          "parentProduct": {
            "href": "/mdr/cdashig/2-2",
            "title": "Clinical Data Acquisition Standards Harmonization Implementation Guide for Human Clinical Trials Version 2.2",
            "type": "Implementation Guide"
          },
          "priorVersion": {
            "href": "/mdr/cdashig/2-1/domains/EC/fields/ECSCAT",
            "title": "Subcategory of Treatment",
            "type": "Data Collection Field"
          },
          "rootItem": {
            "href": "/mdr/root/cdashig/domains/EC/fields/ECSCAT",
            "title": "Subcategory of Treatment",
            "type": "Root Data Element"
          },
          "sdtmigDatasetMappingTargets": [
            {
              "href": "/mdr/sdtmig/3-3/datasets/EC/variables/ECSCAT",
              "title": "Subcategory of Treatment",
              "type": "SDTM Dataset Variable"
            }
          ],
          "self": {
            "href": "/mdr/cdashig/2-2/domains/EC/fields/ECSCAT",
            "title": "Subcategory of Treatment",
            "type": "Data Collection Field"
          }
        },
        "completionInstructions": "Record the study treatment subcategory, if not pre-printed on the CRF.",
        "core": "O",
        "definition": "A sub-division of the ECCAT values based on user-defined characteristics.",
        "implementationNotes": "Sponsor-defined controlled terminology. This would most commonly be pre-printed on the CRF or screen and pre-populated in the data management system. This is not typically a question to which the site would provide an answer. ECSCAT can only be used if there is an ECCAT and it must be a subcategorization of ECCAT.",
        "label": "Subcategory of Treatment",
        "mappingInstructions": "Maps directly to the SDTMIG variable listed in the SDTMIG Target column.",
        "name": "ECSCAT",
        "ordinal": "7",
        "prompt": "[Study Treatment Subcategory]; NULL",
        "questionText": "What is the subcategory of the [study treatment/dose]?",
        "simpleDatatype": "Char"
      },
      {
        "_links": {
          "implements": {
            "href": "/mdr/cdash/1-2/classes/Interventions/fields/--TRT",
            "title": "Name of Treatment",
            "type": "Class Variable"
          },
          "parentDomain": {
            "href": "/mdr/cdashig/2-2/domains/EC",
            "title": "Exposure as Collected",
            "type": "CDASH Domain"
          },
          "parentProduct": {
            "href": "/mdr/cdashig/2-2",
            "title": "Clinical Data Acquisition Standards Harmonization Implementation Guide for Human Clinical Trials Version 2.2",
            "type": "Implementation Guide"
          },
          "priorVersion": {
            "href": "/mdr/cdashig/2-1/domains/EC/fields/ECTRT",
            "title": "Treatment",
            "type": "Data Collection Field"
          },
          "rootItem": {
            "href": "/mdr/root/cdashig/domains/EC/fields/ECTRT",
            "title": "Treatment",
            "type": "Root Data Element"
          },
          "sdtmigDatasetMappingTargets": [
            {
              "href": "/mdr/sdtmig/3-3/datasets/EC/variables/ECTRT",
              "title": "Name of Treatment",
              "type": "SDTM Dataset Variable"
            }
          ],
          "self": {
            "href": "/mdr/cdashig/2-2/domains/EC/fields/ECTRT",
            "title": "Treatment",
            "type": "Data Collection Field"
          }
        },
        "completionInstructions": "Record the name of study treatment.",
        "core": "R/C",
        "definition": "Name of the intervention or treatment known to the subject and/or administrator.",
        "implementationNotes": "ECTRT is the name of the intervention or treatment known to the subject and/or administrator and it is the SDTM topic variable. It is a required variable in SDTM and must have a value in CDASH or a plan to populate it in the SDTM submission datasets (i.e., collected or populated from other sources). If, in a masked study, treatment is collected and known as tablet A to the subject or administrator, then ECTRT=\"TABLET A\". If, in a masked study, the treatment is not known by a synonym and the data are to be exchanged between sponsors, partners, and/or regulatory agency(s), then assign ECTRT the value of \"MASKED\".",
        "label": "Treatment",
        "mappingInstructions": "Maps directly to the SDTMIG variable listed in the SDTMIG Target column.",
        "name": "ECTRT",
        "ordinal": "8",
        "prompt": "[Study Treatment/Investigational Product Name]",
        "questionText": "What was the [study treatment/investigational product] name?",
        "simpleDatatype": "Char"
      },
      {
        "_links": {
          "codelist": [
            {
              "href": "/mdr/root/ct/sdtmct/codelists/C66742",
              "title": "Version-agnostic anchor resource for codelist C66742",
              "type": "Root Value Domain"
            }
          ],
          "implements": {
            "href": "/mdr/cdash/1-2/classes/Interventions/fields/--PRESP",
            "title": "Pre-Specified Intervention",
            "type": "Class Variable"
          },
          "parentDomain": {
            "href": "/mdr/cdashig/2-2/domains/EC",
            "title": "Exposure as Collected",
            "type": "CDASH Domain"
          },
          "parentProduct": {
            "href": "/mdr/cdashig/2-2",
            "title": "Clinical Data Acquisition Standards Harmonization Implementation Guide for Human Clinical Trials Version 2.2",
            "type": "Implementation Guide"
          },
          "priorVersion": {
            "href": "/mdr/cdashig/2-1/domains/EC/fields/ECPRESP",
            "title": "Exposure as Collected Pre-Specified",
            "type": "Data Collection Field"
          },
          "rootItem": {
            "href": "/mdr/root/cdashig/domains/EC/fields/ECPRESP",
            "title": "Exposure as Collected Pre-Specified",
            "type": "Root Data Element"
          },
          "sdtmigDatasetMappingTargets": [
            {
              "href": "/mdr/sdtmig/3-3/datasets/EC/variables/ECPRESP",
              "title": "Pre-Specified",
              "type": "SDTM Dataset Variable"
            }
          ],
          "self": {
            "href": "/mdr/cdashig/2-2/domains/EC/fields/ECPRESP",
            "title": "Exposure as Collected Pre-Specified",
            "type": "Data Collection Field"
          }
        },
        "core": "O",
        "definition": "An indication that a specific intervention or a group of interventions is pre-specified on a CRF.",
        "implementationNotes": "For pre-specified interventions, a hidden field on a CRF defaulted to \"Y\", or added during the SDTM dataset creation. If a study collects both pre-specified and free-text interventions, the value of ECPRESP should be \"Y\" for all pre-specified interventions and null for interventions reported as free text.",
        "label": "Exposure as Collected Pre-Specified",
        "mappingInstructions": "Maps directly to the SDTMIG variable listed in the SDTMIG Target column.",
        "name": "ECPRESP",
        "ordinal": "9",
        "simpleDatatype": "Char"
      },
      {
        "_links": {
          "codelist": [
            {
              "href": "/mdr/root/ct/sdtmct/codelists/C66742",
              "title": "Version-agnostic anchor resource for codelist C66742",
              "type": "Root Value Domain"
            }
          ],
          "implements": {
            "href": "/mdr/cdash/1-2/classes/Interventions/fields/--OCCUR",
            "title": "Occurrence",
            "type": "Class Variable"
          },
          "parentDomain": {
            "href": "/mdr/cdashig/2-2/domains/EC",
            "title": "Exposure as Collected",
            "type": "CDASH Domain"
          },
          "parentProduct": {
            "href": "/mdr/cdashig/2-2",
            "title": "Clinical Data Acquisition Standards Harmonization Implementation Guide for Human Clinical Trials Version 2.2",
            "type": "Implementation Guide"
          },
          "priorVersion": {
            "href": "/mdr/cdashig/2-1/domains/EC/fields/ECOCCUR",
            "title": "Exposure as Collected Occurrence",
            "type": "Data Collection Field"
          },
          "rootItem": {
            "href": "/mdr/root/cdashig/domains/EC/fields/ECOCCUR",
            "title": "Exposure as Collected Occurrence",
            "type": "Root Data Element"
          },
          "sdtmigDatasetMappingTargets": [
            {
              "href": "/mdr/sdtmig/3-3/datasets/EC/variables/ECOCCUR",
              "title": "Occurrence",
              "type": "SDTM Dataset Variable"
            }
          ],
          "self": {
            "href": "/mdr/cdashig/2-2/domains/EC/fields/ECOCCUR",
            "title": "Exposure as Collected Occurrence",
            "type": "Data Collection Field"
          }
        },
        "completionInstructions": "Indicate if the subject took study treatment. If Yes, include the appropriate details where indicated.",
        "core": "O",
        "definition": "An indication whether the study treatment was administered when information about the occurrence of a specific intervention was solicited.",
        "implementationNotes": "ECOCCUR is used to indicate whether the subject was actually administered treatment/medication. ECOCCUR should not be used to indicate that the question was not asked or answered.",
        "label": "Exposure as Collected Occurrence",
        "mappingInstructions": "Maps directly to the SDTMIG variable listed in the SDTMIG Target column. Not applicable when ECMOOD is \"Scheduled\".",
        "name": "ECOCCUR",
        "ordinal": "10",
        "prompt": "[Study Medication/Treatment]",
        "questionText": "Was [study treatment/dose] administered?; Has the subject taken [study treatment/dose]?",
        "simpleDatatype": "Char"
      },
      {
        "_links": {
          "implements": {
            "href": "/mdr/cdash/1-2/classes/Interventions/fields/--REASOC",
            "title": "Reason for Occur Value",
            "type": "Class Variable"
          },
          "parentDomain": {
            "href": "/mdr/cdashig/2-2/domains/EC",
            "title": "Exposure as Collected",
            "type": "CDASH Domain"
          },
          "parentProduct": {
            "href": "/mdr/cdashig/2-2",
            "title": "Clinical Data Acquisition Standards Harmonization Implementation Guide for Human Clinical Trials Version 2.2",
            "type": "Implementation Guide"
          },
          "priorVersion": {
            "href": "/mdr/cdashig/2-1/domains/EC/fields/ECREASOC",
            "title": "Exposure Reason for Occur Value",
            "type": "Data Collection Field"
          },
          "rootItem": {
            "href": "/mdr/root/cdashig/domains/EC/fields/ECREASOC",
            "title": "Exposure Reason for Occur Value",
            "type": "Root Data Element"
          },
          "sdtmigDatasetMappingTargets": [
            {
              "href": "/mdr/sdtmig/3-3/datasets/SUPPQUAL/variables/QVAL",
              "title": "Data Value",
              "type": "SDTM Dataset Variable"
            }
          ],
          "self": {
            "href": "/mdr/cdashig/2-2/domains/EC/fields/ECREASOC",
            "title": "Exposure Reason for Occur Value",
            "type": "Data Collection Field"
          }
        },
        "completionInstructions": "Indicate why the study treatment was or wasnot taken.",
        "core": "O",
        "definition": "An explanation for why a scheduled study treatment administration did or did not occur.",
        "implementationNotes": "The reason the study treatment was or was not taken may be chosen from a sponsor-defined codelist (e.g., SUBJECT MISTAKE, SUBJECT REFUSED) or entered as free text. When --REASOC is used, --OCCUR must also be populated in the SDTM dataset with a value of \"Y\" or \"N\".",
        "label": "Exposure Reason for Occur Value",
        "mappingInstructions": "This information could be submitted in a SUPPEC dataset as the value of SUPPEC.QVAL where SUPPEC.QNAM=\"ECREASOC\" and SUPPEC.QLABEL =\"Reason for Occur Value\". Refer to the current SDTM and SDTMIG for instructions on placement of non-standard variables (NSVs) in SDTM domains.",
        "name": "ECREASOC",
        "ordinal": "11",
        "prompt": "Reason (Not) Taken",
        "questionText": "What was the reason that the[study treatment/dose] was (not)taken?",
        "simpleDatatype": "Char"
      },
      {
        "_links": {
          "codelist": [
            {
              "href": "/mdr/root/ct/sdtmct/codelists/C125923",
              "title": "Version-agnostic anchor resource for codelist C125923",
              "type": "Root Value Domain"
            }
          ],
          "implements": {
            "href": "/mdr/cdash/1-2/classes/Interventions/fields/--MOOD",
            "title": "Mood",
            "type": "Class Variable"
          },
          "parentDomain": {
            "href": "/mdr/cdashig/2-2/domains/EC",
            "title": "Exposure as Collected",
            "type": "CDASH Domain"
          },
          "parentProduct": {
            "href": "/mdr/cdashig/2-2",
            "title": "Clinical Data Acquisition Standards Harmonization Implementation Guide for Human Clinical Trials Version 2.2",
            "type": "Implementation Guide"
          },
          "priorVersion": {
            "href": "/mdr/cdashig/2-1/domains/EC/fields/ECMOOD",
            "title": "Exposure as Collected Mood",
            "type": "Data Collection Field"
          },
          "rootItem": {
            "href": "/mdr/root/cdashig/domains/EC/fields/ECMOOD",
            "title": "Exposure as Collected Mood",
            "type": "Root Data Element"
          },
          "sdtmigDatasetMappingTargets": [
            {
              "href": "/mdr/sdtmig/3-3/datasets/EC/variables/ECMOOD",
              "title": "Mood",
              "type": "SDTM Dataset Variable"
            }
          ],
          "self": {
            "href": "/mdr/cdashig/2-2/domains/EC/fields/ECMOOD",
            "title": "Exposure as Collected Mood",
            "type": "Data Collection Field"
          }
        },
        "completionInstructions": "Indicate if this record has happened or is intended to happen.",
        "core": "O",
