[
  {
    "_links": {
      "parentBiomedicalConcept": {
        "href": "/mdr/bc/biomedicalconcepts/C64433",
        "title": "Alanine Aminotransferase Measurement",
        "type": "Biomedical Concept"
      },
      "parentPackage": {
        "href": "/mdr/specializations/sdtm/packages/2025-12-16/datasetspecializations",
        "title": "SDTM Dataset Specialization Package Effective 2025-12-16",
        "type": "SDTM Dataset Specialization Package"
      },
      "self": {
        "href": "/mdr/specializations/sdtm/datasetspecializations/ALTSERPL",
        "title": "Alanine Aminotransferase Concentration in Serum or Plasma",
        "type": "SDTM Dataset Specialization"
      }
    },
    "datasetSpecializationId": "ALTSERPL",
    "domain": "LB",
    "shortName": "Alanine Aminotransferase Concentration in Serum or Plasma",
    "source": "LB.LBTESTCD",
    "sdtmigStartVersion": "3-2",
    "sdtmigEndVersion": "",
    "variables": [
      {
        "name": "LBTESTCD",
        "isNonStandard": false,
        "codelist": {
          "conceptId": "C65047",
          "submissionValue": "LBTESTCD",
          "href": "https://evsexplore.semantics.cancer.gov/evsexplore/concept/ncit/C65047"
        },
        "assignedTerm": {
          "conceptId": "C64433",
          "value": "ALT"
        },
        "role": "Topic",
        "relationship": {
          "subject": "LBTESTCD",
          "linkingPhrase": "is the code for the value in",
          "predicateTerm": "IS_DECODED_BY",
          "object": "LBTEST"
        },
        "mandatoryVariable": true,
        "mandatoryValue": true,
        "comparator": "EQ"
      },
      {
        "name": "LBTEST",
        "isNonStandard": false,
        "codelist": {
          "conceptId": "C67154",
          "submissionValue": "LBTEST",
          "href": "https://evsexplore.semantics.cancer.gov/evsexplore/concept/ncit/C67154"
        },
        "assignedTerm": {
          "conceptId": "C64433",
          "value": "Alanine Aminotransferase"
        },
        "role": "Qualifier",
        "relationship": {
          "subject": "LBTEST",
          "linkingPhrase": "decodes the value in",
          "predicateTerm": "DECODES",
          "object": "LBTESTCD"
        },
        "mandatoryVariable": true,
        "mandatoryValue": true
      },
      {
        "name": "LBCAT",
        "isNonStandard": false,
        "assignedTerm": {
          "value": "CHEMISTRY"
        },
        "role": "Qualifier",
        "relationship": {
          "subject": "LBCAT",
          "linkingPhrase": "groups values in",
          "predicateTerm": "GROUPS",
          "object": "LBTESTCD"
        },
        "mandatoryVariable": true,
        "mandatoryValue": false
      },
      {
        "name": "LBORRES",
        "dataElementConceptId": "C70856",
        "isNonStandard": false,
        "role": "Qualifier",
        "dataType": "float",
        "length": 12,
        "format": "12.4",
        "significantDigits": 4,
        "relationship": {
          "subject": "LBORRES",
          "linkingPhrase": "is the result of the test in",
          "predicateTerm": "IS_RESULT_OF",
          "object": "LBTESTCD"
        },
        "mandatoryVariable": true,
        "mandatoryValue": false,
        "originType": "Collected",
        "originSource": "Vendor",
        "vlmTarget": true
      },
      {
        "name": "LBORRESU",
        "dataElementConceptId": "C67365",
        "isNonStandard": false,
        "codelist": {
          "conceptId": "C71620",
          "submissionValue": "UNIT",
          "href": "https://evsexplore.semantics.cancer.gov/evsexplore/concept/ncit/C71620"
        },
        "valueList": [
          "U/L",
          "ukat/L",
          "IU/L",
          "nkat/L"
        ],
        "role": "Qualifier",
        "relationship": {
          "subject": "LBORRESU",
          "linkingPhrase": "is the unit for the value in",
          "predicateTerm": "IS_UNIT_FOR",
          "object": "LBORRES"
        },
        "mandatoryVariable": true,
        "mandatoryValue": false,
        "vlmTarget": true
      },
      {
        "name": "LBSTRESC",
        "dataElementConceptId": "C70856",
        "isNonStandard": false,
        "role": "Qualifier",
        "dataType": "float",
        "length": 12,
        "format": "12.4",
        "significantDigits": 4,
        "relationship": {
          "subject": "LBSTRESC",
          "linkingPhrase": "is the result of the test in",
          "predicateTerm": "IS_RESULT_OF",
          "object": "LBTESTCD"
        },
        "mandatoryVariable": true,
        "mandatoryValue": false,
        "originType": "Collected",
        "originSource": "Vendor",
        "vlmTarget": true
      },
      {
        "name": "LBSTRESN",
        "dataElementConceptId": "C70856",
        "isNonStandard": false,
        "role": "Qualifier",
        "dataType": "float",
        "length": 12,
        "format": "12.4",
        "significantDigits": 4,
        "relationship": {
          "subject": "LBSTRESN",
          "linkingPhrase": "is the result of the test in",
          "predicateTerm": "IS_RESULT_OF",
          "object": "LBTESTCD"
        },
        "mandatoryVariable": true,
        "mandatoryValue": false,
        "originType": "Collected",
        "originSource": "Vendor",
        "vlmTarget": true
      },
      {
        "name": "LBSTRESU",
        "dataElementConceptId": "C67365",
        "isNonStandard": false,
        "codelist": {
          "conceptId": "C71620",
          "submissionValue": "UNIT",
          "href": "https://evsexplore.semantics.cancer.gov/evsexplore/concept/ncit/C71620"
        },
        "assignedTerm": {
          "conceptId": "C70510",
          "value": "nkat/L"
        },
        "role": "Qualifier",
        "relationship": {
          "subject": "LBSTRESU",
          "linkingPhrase": "is the unit for the value in",
          "predicateTerm": "IS_UNIT_FOR",
          "object": "LBSTRESN"
        },
        "mandatoryVariable": true,
        "mandatoryValue": false,
        "vlmTarget": true
      },
      {
        "name": "LBLOINC",
        "isNonStandard": false,
        "assignedTerm": {
          "value": "1742-6"
        },
        "role": "Qualifier",
        "relationship": {
          "subject": "LBLOINC",
          "linkingPhrase": "identifies an observation described by",
          "predicateTerm": "IDENTIFIES_OBSERVATION",
          "object": "LBTESTCD"
        },
        "mandatoryVariable": false,
        "mandatoryValue": false
      },
      {
        "name": "LBSPEC",
        "dataElementConceptId": "C70713",
        "isNonStandard": false,
        "codelist": {
          "conceptId": "C78734",
          "submissionValue": "SPECTYPE",
          "href": "https://evsexplore.semantics.cancer.gov/evsexplore/concept/ncit/C78734"
        },
        "assignedTerm": {
          "conceptId": "C105706",
          "value": "SERUM OR PLASMA"
        },
        "role": "Qualifier",
        "relationship": {
          "subject": "LBSPEC",
          "linkingPhrase": "is the specimen tested in",
          "predicateTerm": "IS_SPECIMEN_TESTED_IN",
          "object": "LBTESTCD"
        },
        "mandatoryVariable": true,
        "mandatoryValue": false,
        "comparator": "EQ"
      },
      {
        "name": "LBFAST",
        "dataElementConceptId": "C93566",
        "isNonStandard": false,
        "codelist": {
          "conceptId": "C66742",
          "submissionValue": "NY",
          "href": "https://evsexplore.semantics.cancer.gov/evsexplore/concept/ncit/C66742"
        },
        "subsetCodelist": "NY_NY",
        "valueList": [
          "N",
          "Y"
        ],
        "role": "Qualifier",
        "relationship": {
          "subject": "LBFAST",
          "linkingPhrase": "is the subject's fasting status during the performance of the test in",
          "predicateTerm": "IS_SUBJECT_STATE_FOR",
          "object": "LBTESTCD"
        },
        "mandatoryVariable": false,
        "mandatoryValue": false
      },
      {
        "name": "LBDTC",
        "dataElementConceptId": "C82515",
        "isNonStandard": false,
        "role": "Timing",
        "relationship": {
          "subject": "LBDTC",
          "linkingPhrase": "is the date of occurrence for",
          "predicateTerm": "IS_TIMING_FOR",
          "object": "LBTESTCD"
        },
        "mandatoryVariable": true,
        "mandatoryValue": false
      }
    ]
  },
  {
    "_links": {
      "parentBiomedicalConcept": {
        "href": "/mdr/bc/biomedicalconcepts/C64431",
        "title": "Albumin Measurement",
        "type": "Biomedical Concept"
      },
      "parentPackage": {
        "href": "/mdr/specializations/sdtm/packages/2025-12-16/datasetspecializations",
        "title": "SDTM Dataset Specialization Package Effective 2025-12-16",
        "type": "SDTM Dataset Specialization Package"
      },
      "self": {
        "href": "/mdr/specializations/sdtm/datasetspecializations/ALBSERPL",
        "title": "Albumin Concentration in Serum or Plasma",
        "type": "SDTM Dataset Specialization"
      }
    },
    "datasetSpecializationId": "ALBSERPL",
    "domain": "LB",
    "shortName": "Albumin Concentration in Serum or Plasma",
    "source": "LB.LBTESTCD",
    "sdtmigStartVersion": "3-2",
    "sdtmigEndVersion": "",
    "variables": [
      {
        "name": "LBTESTCD",
        "isNonStandard": false,
        "codelist": {
          "conceptId": "C65047",
          "submissionValue": "LBTESTCD",
          "href": "https://evsexplore.semantics.cancer.gov/evsexplore/concept/ncit/C65047"
        },
        "assignedTerm": {
          "conceptId": "C64431",
          "value": "ALB"
        },
        "role": "Topic",
        "relationship": {
          "subject": "LBTESTCD",
          "linkingPhrase": "is the code for the value in",
          "predicateTerm": "IS_DECODED_BY",
          "object": "LBTEST"
        },
        "mandatoryVariable": true,
        "mandatoryValue": true,
        "comparator": "EQ"
      },
      {
        "name": "LBTEST",
        "isNonStandard": false,
        "codelist": {
          "conceptId": "C67154",
          "submissionValue": "LBTEST",
          "href": "https://evsexplore.semantics.cancer.gov/evsexplore/concept/ncit/C67154"
        },
        "assignedTerm": {
          "conceptId": "C64431",
          "value": "Albumin"
        },
        "role": "Qualifier",
        "relationship": {
          "subject": "LBTEST",
          "linkingPhrase": "decodes the value in",
          "predicateTerm": "DECODES",
          "object": "LBTESTCD"
        },
        "mandatoryVariable": true,
        "mandatoryValue": true
      },
      {
        "name": "LBCAT",
        "isNonStandard": false,
        "assignedTerm": {
          "value": "CHEMISTRY"
        },
        "role": "Qualifier",
        "relationship": {
          "subject": "LBCAT",
          "linkingPhrase": "groups values in",
          "predicateTerm": "GROUPS",
          "object": "LBTESTCD"
        },
        "mandatoryVariable": true,
        "mandatoryValue": false
      },
      {
        "name": "LBORRES",
        "dataElementConceptId": "C70856",
        "isNonStandard": false,
        "role": "Qualifier",
        "dataType": "float",
        "length": 12,
        "format": "12.4",
        "significantDigits": 4,
        "relationship": {
          "subject": "LBORRES",
          "linkingPhrase": "is the result of the test in",
          "predicateTerm": "IS_RESULT_OF",
          "object": "LBTESTCD"
        },
        "mandatoryVariable": true,
        "mandatoryValue": false,
        "originType": "Collected",
        "originSource": "Vendor",
        "vlmTarget": true
      },
      {
        "name": "LBORRESU",
        "dataElementConceptId": "C48207",
        "isNonStandard": false,
        "codelist": {
          "conceptId": "C71620",
          "submissionValue": "UNIT",
          "href": "https://evsexplore.semantics.cancer.gov/evsexplore/concept/ncit/C71620"
        },
        "valueList": [
          "g/L",
          "g/dL",
          "mg/dL",
          "umol/L"
        ],
        "role": "Qualifier",
        "relationship": {
          "subject": "LBORRESU",
          "linkingPhrase": "is the unit for the value in",
          "predicateTerm": "IS_UNIT_FOR",
          "object": "LBORRES"
        },
        "mandatoryVariable": true,
        "mandatoryValue": false,
        "vlmTarget": true
      },
      {
        "name": "LBSTRESC",
        "dataElementConceptId": "C70856",
        "isNonStandard": false,
        "role": "Qualifier",
        "dataType": "float",
        "length": 12,
        "format": "12.4",
        "significantDigits": 4,
        "relationship": {
          "subject": "LBSTRESC",
          "linkingPhrase": "is the result of the test in",
          "predicateTerm": "IS_RESULT_OF",
          "object": "LBTESTCD"
        },
        "mandatoryVariable": true,
        "mandatoryValue": false,
        "originType": "Collected",
        "originSource": "Vendor",
        "vlmTarget": true
      },
      {
        "name": "LBSTRESN",
        "dataElementConceptId": "C70856",
        "isNonStandard": false,
        "role": "Qualifier",
        "dataType": "float",
        "length": 12,
        "format": "12.4",
        "significantDigits": 4,
        "relationship": {
          "subject": "LBSTRESN",
          "linkingPhrase": "is the result of the test in",
          "predicateTerm": "IS_RESULT_OF",
          "object": "LBTESTCD"
        },
        "mandatoryVariable": true,
        "mandatoryValue": false,
        "originType": "Collected",
        "originSource": "Vendor",
        "vlmTarget": true
      },
      {
        "name": "LBSTRESU",
        "dataElementConceptId": "C48207",
        "isNonStandard": false,
        "codelist": {
          "conceptId": "C71620",
          "submissionValue": "UNIT",
          "href": "https://evsexplore.semantics.cancer.gov/evsexplore/concept/ncit/C71620"
        },
        "assignedTerm": {
          "conceptId": "C42576",
          "value": "g/L"
        },
        "role": "Qualifier",
        "relationship": {
          "subject": "LBSTRESU",
          "linkingPhrase": "is the unit for the value in",
          "predicateTerm": "IS_UNIT_FOR",
          "object": "LBSTRESN"
        },
        "mandatoryVariable": true,
        "mandatoryValue": false,
        "vlmTarget": true
      },
      {
        "name": "LBLOINC",
        "isNonStandard": false,
        "valueList": [
          "1751-7",
          "54347-0"
        ],
        "role": "Qualifier",
        "relationship": {
          "subject": "LBLOINC",
          "linkingPhrase": "identifies an observation described by",
          "predicateTerm": "IDENTIFIES_OBSERVATION",
          "object": "LBTESTCD"
        },
        "mandatoryVariable": false,
        "mandatoryValue": false
      },
      {
        "name": "LBSPEC",
        "dataElementConceptId": "C70713",
        "isNonStandard": false,
        "codelist": {
          "conceptId": "C78734",
          "submissionValue": "SPECTYPE",
          "href": "https://evsexplore.semantics.cancer.gov/evsexplore/concept/ncit/C78734"
        },
        "assignedTerm": {
          "conceptId": "C105706",
          "value": "SERUM OR PLASMA"
        },
        "role": "Qualifier",
        "relationship": {
          "subject": "LBSPEC",
          "linkingPhrase": "is the specimen tested in",
          "predicateTerm": "IS_SPECIMEN_TESTED_IN",
          "object": "LBTESTCD"
        },
        "mandatoryVariable": true,
        "mandatoryValue": false,
        "comparator": "EQ"
      },
      {
        "name": "LBFAST",
        "dataElementConceptId": "C93566",
        "isNonStandard": false,
        "codelist": {
          "conceptId": "C66742",
          "submissionValue": "NY",
          "href": "https://evsexplore.semantics.cancer.gov/evsexplore/concept/ncit/C66742"
        },
        "subsetCodelist": "NY_NY",
        "valueList": [
          "N",
          "Y"
        ],
        "role": "Qualifier",
        "relationship": {
          "subject": "LBFAST",
          "linkingPhrase": "is the subject's fasting status during the performance of the test in",
          "predicateTerm": "IS_SUBJECT_STATE_FOR",
          "object": "LBTESTCD"
        },
        "mandatoryVariable": false,
        "mandatoryValue": false
      },
      {
        "name": "LBDTC",
        "dataElementConceptId": "C82515",
        "isNonStandard": false,
        "role": "Timing",
        "relationship": {
          "subject": "LBDTC",
          "linkingPhrase": "is the date of occurrence for",
          "predicateTerm": "IS_TIMING_FOR",
          "object": "LBTESTCD"
        },
        "mandatoryVariable": true,
        "mandatoryValue": false
      }
    ]
  },
  {
    "_links": {
      "parentBiomedicalConcept": {
        "href": "/mdr/bc/biomedicalconcepts/C64467",
        "title": "Aspartate Aminotransferase Measurement",
        "type": "Biomedical Concept"
      },
      "parentPackage": {
        "href": "/mdr/specializations/sdtm/packages/2025-12-16/datasetspecializations",
        "title": "SDTM Dataset Specialization Package Effective 2025-12-16",
        "type": "SDTM Dataset Specialization Package"
      },
      "self": {
        "href": "/mdr/specializations/sdtm/datasetspecializations/ASTSERPL",
        "title": "Aspartate Aminotransferase in Serum or Plasma",
        "type": "SDTM Dataset Specialization"
      }
    },
    "datasetSpecializationId": "ASTSERPL",
    "domain": "LB",
    "shortName": "Aspartate Aminotransferase in Serum or Plasma",
    "source": "LB.LBTESTCD",
    "sdtmigStartVersion": "3-2",
    "sdtmigEndVersion": "",
    "variables": [
      {
        "name": "LBTESTCD",
        "isNonStandard": false,
        "codelist": {
          "conceptId": "C65047",
          "submissionValue": "LBTESTCD",
          "href": "https://evsexplore.semantics.cancer.gov/evsexplore/concept/ncit/C65047"
        },
        "assignedTerm": {
          "conceptId": "C64467",
          "value": "AST"
        },
        "role": "Topic",
        "relationship": {
          "subject": "LBTESTCD",
          "linkingPhrase": "is the code for the value in",
          "predicateTerm": "IS_DECODED_BY",
          "object": "LBTEST"
        },
        "mandatoryVariable": true,
        "mandatoryValue": true,
        "comparator": "EQ"
      },
      {
        "name": "LBTEST",
        "isNonStandard": false,
        "codelist": {
          "conceptId": "C67154",
          "submissionValue": "LBTEST",
          "href": "https://evsexplore.semantics.cancer.gov/evsexplore/concept/ncit/C67154"
        },
        "assignedTerm": {
          "conceptId": "C64467",
          "value": "Aspartate Aminotransferase"
        },
        "role": "Qualifier",
        "relationship": {
          "subject": "LBTEST",
          "linkingPhrase": "decodes the value in",
          "predicateTerm": "DECODES",
          "object": "LBTESTCD"
        },
        "mandatoryVariable": true,
        "mandatoryValue": true
      },
      {
        "name": "LBCAT",
        "isNonStandard": false,
        "assignedTerm": {
          "value": "CHEMISTRY"
        },
        "role": "Qualifier",
        "relationship": {
          "subject": "LBCAT",
          "linkingPhrase": "groups values in",
          "predicateTerm": "GROUPS",
          "object": "LBTESTCD"
        },
        "mandatoryVariable": true,
        "mandatoryValue": false
      },
      {
        "name": "LBORRES",
        "dataElementConceptId": "C70856",
        "isNonStandard": false,
        "role": "Qualifier",
        "dataType": "float",
        "length": 12,
        "format": "12.4",
        "significantDigits": 4,
        "relationship": {
          "subject": "LBORRES",
          "linkingPhrase": "is the result of the test in",
          "predicateTerm": "IS_RESULT_OF",
          "object": "LBTESTCD"
        },
        "mandatoryVariable": true,
        "mandatoryValue": false,
        "originType": "Collected",
        "originSource": "Vendor",
        "vlmTarget": true
      },
      {
        "name": "LBORRESU",
        "dataElementConceptId": "C67365",
        "isNonStandard": false,
        "codelist": {
          "conceptId": "C71620",
          "submissionValue": "UNIT",
          "href": "https://evsexplore.semantics.cancer.gov/evsexplore/concept/ncit/C71620"
        },
        "valueList": [
          "U/L",
          "ukat/L",
          "IU/L"
        ],
        "role": "Qualifier",
        "relationship": {
          "subject": "LBORRESU",
          "linkingPhrase": "is the unit for the value in",
          "predicateTerm": "IS_UNIT_FOR",
          "object": "LBORRES"
        },
        "mandatoryVariable": true,
        "mandatoryValue": false,
        "vlmTarget": true
      },
      {
        "name": "LBSTRESC",
        "dataElementConceptId": "C70856",
        "isNonStandard": false,
        "role": "Qualifier",
        "dataType": "float",
        "length": 12,
        "format": "12.4",
        "significantDigits": 4,
        "relationship": {
          "subject": "LBSTRESC",
          "linkingPhrase": "is the result of the test in",
          "predicateTerm": "IS_RESULT_OF",
          "object": "LBTESTCD"
        },
        "mandatoryVariable": true,
        "mandatoryValue": false,
        "originType": "Collected",
        "originSource": "Vendor",
        "vlmTarget": true
      },
      {
        "name": "LBSTRESN",
        "dataElementConceptId": "C70856",
        "isNonStandard": false,
        "role": "Qualifier",
        "dataType": "float",
        "length": 12,
        "format": "12.4",
        "significantDigits": 4,
        "relationship": {
          "subject": "LBSTRESN",
          "linkingPhrase": "is the result of the test in",
          "predicateTerm": "IS_RESULT_OF",
          "object": "LBTESTCD"
        },
        "mandatoryVariable": true,
        "mandatoryValue": false,
        "originType": "Collected",
        "originSource": "Vendor",
        "vlmTarget": true
      },
      {
        "name": "LBSTRESU",
        "dataElementConceptId": "C67365",
        "isNonStandard": false,
        "codelist": {
          "conceptId": "C71620",
          "submissionValue": "UNIT",
          "href": "https://evsexplore.semantics.cancer.gov/evsexplore/concept/ncit/C71620"
        },
        "assignedTerm": {
          "conceptId": "C67397",
          "value": "ukat/L"
        },
        "role": "Qualifier",
        "relationship": {
          "subject": "LBSTRESU",
          "linkingPhrase": "is the unit for the value in",
          "predicateTerm": "IS_UNIT_FOR",
          "object": "LBSTRESN"
        },
        "mandatoryVariable": true,
        "mandatoryValue": false,
        "vlmTarget": true
      },
      {
        "name": "LBLOINC",
        "isNonStandard": false,
        "assignedTerm": {
          "value": "1920-8"
        },
        "role": "Qualifier",
        "relationship": {
          "subject": "LBLOINC",
          "linkingPhrase": "identifies an observation described by",
          "predicateTerm": "IDENTIFIES_OBSERVATION",
          "object": "LBTESTCD"
        },
        "mandatoryVariable": false,
        "mandatoryValue": false
      },
      {
        "name": "LBSPEC",
        "dataElementConceptId": "C70713",
        "isNonStandard": false,
        "codelist": {
          "conceptId": "C78734",
          "submissionValue": "SPECTYPE",
          "href": "https://evsexplore.semantics.cancer.gov/evsexplore/concept/ncit/C78734"
        },
        "assignedTerm": {
          "conceptId": "C105706",
          "value": "SERUM OR PLASMA"
        },
        "role": "Qualifier",
        "relationship": {
          "subject": "LBSPEC",
          "linkingPhrase": "is the specimen tested in",
          "predicateTerm": "IS_SPECIMEN_TESTED_IN",
          "object": "LBTESTCD"
        },
        "mandatoryVariable": true,
        "mandatoryValue": false,
        "comparator": "EQ"
      },
      {
        "name": "LBFAST",
        "dataElementConceptId": "C93566",
        "isNonStandard": false,
        "codelist": {
          "conceptId": "C66742",
          "submissionValue": "NY",
          "href": "https://evsexplore.semantics.cancer.gov/evsexplore/concept/ncit/C66742"
        },
        "subsetCodelist": "NY_NY",
        "valueList": [
          "N",
          "Y"
        ],
        "role": "Qualifier",
        "relationship": {
          "subject": "LBFAST",
          "linkingPhrase": "is the subject's fasting status during the performance of the test in",
          "predicateTerm": "IS_SUBJECT_STATE_FOR",
          "object": "LBTESTCD"
        },
        "mandatoryVariable": false,
        "mandatoryValue": false
      },
      {
        "name": "LBDTC",
        "dataElementConceptId": "C82515",
        "isNonStandard": false,
        "role": "Timing",
        "relationship": {
          "subject": "LBDTC",
          "linkingPhrase": "is the date of occurrence for",
          "predicateTerm": "IS_TIMING_FOR",
          "object": "LBTESTCD"
        },
        "mandatoryVariable": true,
        "mandatoryValue": false
      }
    ]
  },
  {
    "_links": {
      "parentBiomedicalConcept": {
        "href": "/mdr/bc/biomedicalconcepts/C64431",
        "title": "Albumin Measurement",
        "type": "Biomedical Concept"
      },
      "parentPackage": {
        "href": "/mdr/specializations/sdtm/packages/2025-12-16/datasetspecializations",
        "title": "SDTM Dataset Specialization Package Effective 2025-12-16",
        "type": "SDTM Dataset Specialization Package"
      },
      "self": {
        "href": "/mdr/specializations/sdtm/datasetspecializations/ALBURIN",
        "title": "Albumin Concentration in Urine",
        "type": "SDTM Dataset Specialization"
      }
    },
    "datasetSpecializationId": "ALBURIN",
    "domain": "LB",
    "shortName": "Albumin Concentration in Urine",
    "source": "LB.LBTESTCD",
    "sdtmigStartVersion": "3-2",
    "sdtmigEndVersion": "",
    "variables": [
      {
        "name": "LBTESTCD",
        "isNonStandard": false,
        "codelist": {
          "conceptId": "C65047",
          "submissionValue": "LBTESTCD",
          "href": "https://evsexplore.semantics.cancer.gov/evsexplore/concept/ncit/C65047"
        },
        "assignedTerm": {
          "conceptId": "C64431",
          "value": "ALB"
        },
        "role": "Topic",
        "relationship": {
          "subject": "LBTESTCD",
          "linkingPhrase": "is the code for the value in",
          "predicateTerm": "IS_DECODED_BY",
          "object": "LBTEST"
        },
        "mandatoryVariable": true,
        "mandatoryValue": true,
        "comparator": "EQ"
      },
      {
        "name": "LBTEST",
        "isNonStandard": false,
        "codelist": {
          "conceptId": "C67154",
          "submissionValue": "LBTEST",
          "href": "https://evsexplore.semantics.cancer.gov/evsexplore/concept/ncit/C67154"
        },
        "assignedTerm": {
          "conceptId": "C64431",
          "value": "Albumin"
        },
        "role": "Qualifier",
        "relationship": {
          "subject": "LBTEST",
          "linkingPhrase": "decodes the value in",
          "predicateTerm": "DECODES",
          "object": "LBTESTCD"
        },
        "mandatoryVariable": true,
        "mandatoryValue": true
      },
      {
        "name": "LBCAT",
        "isNonStandard": false,
        "assignedTerm": {
          "value": "CHEMISTRY"
        },
        "role": "Qualifier",
        "relationship": {
          "subject": "LBCAT",
          "linkingPhrase": "groups values in",
          "predicateTerm": "GROUPS",
          "object": "LBTESTCD"
        },
        "mandatoryVariable": true,
        "mandatoryValue": false
      },
      {
        "name": "LBORRES",
        "dataElementConceptId": "C70856",
        "isNonStandard": false,
        "role": "Qualifier",
        "dataType": "float",
        "length": 12,
        "format": "12.4",
        "significantDigits": 4,
        "relationship": {
          "subject": "LBORRES",
          "linkingPhrase": "is the result of the test in",
          "predicateTerm": "IS_RESULT_OF",
          "object": "LBTESTCD"
        },
        "mandatoryVariable": true,
        "mandatoryValue": false,
        "originType": "Collected",
        "originSource": "Vendor",
        "vlmTarget": true
      },
      {
        "name": "LBORRESU",
        "dataElementConceptId": "C48207",
        "isNonStandard": false,
        "codelist": {
          "conceptId": "C71620",
          "submissionValue": "UNIT",
          "href": "https://evsexplore.semantics.cancer.gov/evsexplore/concept/ncit/C71620"
        },
        "valueList": [
          "g/L",
          "g/dL",
          "mg/dL",
          "mg/L"
        ],
        "role": "Qualifier",
        "relationship": {
          "subject": "LBORRESU",
          "linkingPhrase": "is the unit for the value in",
          "predicateTerm": "IS_UNIT_FOR",
          "object": "LBORRES"
        },
        "mandatoryVariable": true,
        "mandatoryValue": false,
        "vlmTarget": true
      },
      {
        "name": "LBSTRESC",
        "dataElementConceptId": "C70856",
        "isNonStandard": false,
        "role": "Qualifier",
        "dataType": "float",
        "length": 12,
        "format": "12.4",
        "significantDigits": 4,
        "relationship": {
          "subject": "LBSTRESC",
          "linkingPhrase": "is the result of the test in",
          "predicateTerm": "IS_RESULT_OF",
          "object": "LBTESTCD"
        },
        "mandatoryVariable": true,
        "mandatoryValue": false,
        "originType": "Collected",
        "originSource": "Vendor",
        "vlmTarget": true
      },
      {
        "name": "LBSTRESN",
        "dataElementConceptId": "C70856",
        "isNonStandard": false,
        "role": "Qualifier",
        "dataType": "float",
        "length": 12,
        "format": "12.4",
        "significantDigits": 4,
        "relationship": {
          "subject": "LBSTRESN",
          "linkingPhrase": "is the result of the test in",
          "predicateTerm": "IS_RESULT_OF",
          "object": "LBTESTCD"
        },
        "mandatoryVariable": true,
        "mandatoryValue": false,
        "originType": "Collected",
        "originSource": "Vendor",
        "vlmTarget": true
      },
      {
        "name": "LBSTRESU",
        "dataElementConceptId": "C48207",
        "isNonStandard": false,
        "codelist": {
          "conceptId": "C71620",
          "submissionValue": "UNIT",
          "href": "https://evsexplore.semantics.cancer.gov/evsexplore/concept/ncit/C71620"
        },
        "assignedTerm": {
          "conceptId": "C42576",
          "value": "g/L"
        },
        "role": "Qualifier",
        "relationship": {
          "subject": "LBSTRESU",
          "linkingPhrase": "is the unit for the value in",
          "predicateTerm": "IS_UNIT_FOR",
          "object": "LBSTRESN"
        },
        "mandatoryVariable": true,
        "mandatoryValue": false,
        "vlmTarget": true
      },
      {
        "name": "LBLOINC",
        "isNonStandard": false,
        "assignedTerm": {
          "value": "1754-1"
        },
        "role": "Qualifier",
        "relationship": {
          "subject": "LBLOINC",
          "linkingPhrase": "identifies an observation described by",
          "predicateTerm": "IDENTIFIES_OBSERVATION",
          "object": "LBTESTCD"
        },
        "mandatoryVariable": false,
        "mandatoryValue": false
      },
      {
        "name": "LBSPEC",
        "dataElementConceptId": "C70713",
        "isNonStandard": false,
        "codelist": {
          "conceptId": "C78734",
          "submissionValue": "SPECTYPE",
          "href": "https://evsexplore.semantics.cancer.gov/evsexplore/concept/ncit/C78734"
        },
        "assignedTerm": {
          "conceptId": "C13283",
          "value": "URINE"
        },
        "role": "Qualifier",
        "relationship": {
          "subject": "LBSPEC",
          "linkingPhrase": "is the specimen tested in",
          "predicateTerm": "IS_SPECIMEN_TESTED_IN",
          "object": "LBTESTCD"
        },
        "mandatoryVariable": true,
        "mandatoryValue": false,
        "comparator": "EQ"
      },
      {
        "name": "LBFAST",
        "dataElementConceptId": "C93566",
        "isNonStandard": false,
        "codelist": {
          "conceptId": "C66742",
          "submissionValue": "NY",
          "href": "https://evsexplore.semantics.cancer.gov/evsexplore/concept/ncit/C66742"
        },
        "subsetCodelist": "NY_NY",
        "valueList": [
          "N",
          "Y"
        ],
        "role": "Qualifier",
        "relationship": {
          "subject": "LBFAST",
          "linkingPhrase": "is the subject's fasting status during the performance of the test in",
          "predicateTerm": "IS_SUBJECT_STATE_FOR",
          "object": "LBTESTCD"
        },
        "mandatoryVariable": false,
        "mandatoryValue": false
      },
      {
        "name": "LBDTC",
        "dataElementConceptId": "C82515",
        "isNonStandard": false,
        "role": "Timing",
        "relationship": {
          "subject": "LBDTC",
          "linkingPhrase": "is the date of occurrence for",
          "predicateTerm": "IS_TIMING_FOR",
          "object": "LBTESTCD"
        },
        "mandatoryVariable": true,
        "mandatoryValue": false
      }
    ]
  },
  {
    "_links": {
      "parentBiomedicalConcept": {
        "href": "/mdr/bc/biomedicalconcepts/C64432",
        "title": "Alkaline Phosphatase Measurement",
        "type": "Biomedical Concept"
      },
      "parentPackage": {
        "href": "/mdr/specializations/sdtm/packages/2025-12-16/datasetspecializations",
        "title": "SDTM Dataset Specialization Package Effective 2025-12-16",
        "type": "SDTM Dataset Specialization Package"
      },
      "self": {
        "href": "/mdr/specializations/sdtm/datasetspecializations/ALPSERPL",
        "title": "Alkaline Phosphatase Concentration in Serum or Plasma",
        "type": "SDTM Dataset Specialization"
      }
    },
    "datasetSpecializationId": "ALPSERPL",
    "domain": "LB",
    "shortName": "Alkaline Phosphatase Concentration in Serum or Plasma",
    "source": "LB.LBTESTCD",
    "sdtmigStartVersion": "3-2",
    "sdtmigEndVersion": "",
    "variables": [
      {
        "name": "LBTESTCD",
        "isNonStandard": false,
        "codelist": {
          "conceptId": "C65047",
          "submissionValue": "LBTESTCD",
          "href": "https://evsexplore.semantics.cancer.gov/evsexplore/concept/ncit/C65047"
        },
        "assignedTerm": {
          "conceptId": "C64432",
          "value": "ALP"
        },
        "role": "Topic",
        "relationship": {
          "subject": "LBTESTCD",
          "linkingPhrase": "is the code for the value in",
          "predicateTerm": "IS_DECODED_BY",
          "object": "LBTEST"
        },
        "mandatoryVariable": true,
        "mandatoryValue": true,
        "comparator": "EQ"
      },
      {
        "name": "LBTEST",
        "isNonStandard": false,
        "codelist": {
          "conceptId": "C67154",
          "submissionValue": "LBTEST",
          "href": "https://evsexplore.semantics.cancer.gov/evsexplore/concept/ncit/C67154"
        },
        "assignedTerm": {
          "conceptId": "C64432",
          "value": "Alkaline Phosphatase"
        },
        "role": "Qualifier",
        "relationship": {
          "subject": "LBTEST",
          "linkingPhrase": "decodes the value in",
          "predicateTerm": "DECODES",
          "object": "LBTESTCD"
        },
        "mandatoryVariable": true,
        "mandatoryValue": true
      },
      {
        "name": "LBCAT",
        "isNonStandard": false,
        "assignedTerm": {
          "value": "CHEMISTRY"
        },
        "role": "Qualifier",
        "relationship": {
          "subject": "LBCAT",
          "linkingPhrase": "groups values in",
          "predicateTerm": "GROUPS",
          "object": "LBTESTCD"
        },
        "mandatoryVariable": true,
        "mandatoryValue": false
      },
      {
        "name": "LBORRES",
        "dataElementConceptId": "C70856",
        "isNonStandard": false,
        "role": "Qualifier",
        "dataType": "float",
        "length": 12,
        "format": "12.4",
        "significantDigits": 4,
        "relationship": {
          "subject": "LBORRES",
          "linkingPhrase": "is the result of the test in",
          "predicateTerm": "IS_RESULT_OF",
          "object": "LBTESTCD"
        },
        "mandatoryVariable": true,
        "mandatoryValue": false,
        "originType": "Collected",
        "originSource": "Vendor",
        "vlmTarget": true
      },
      {
        "name": "LBORRESU",
        "dataElementConceptId": "C67365",
        "isNonStandard": false,
        "codelist": {
          "conceptId": "C71620",
          "submissionValue": "UNIT",
          "href": "https://evsexplore.semantics.cancer.gov/evsexplore/concept/ncit/C71620"
        },
        "valueList": [
          "U/L",
          "ukat/L",
          "IU/L"
        ],
        "role": "Qualifier",
        "relationship": {
          "subject": "LBORRESU",
          "linkingPhrase": "is the unit for the value in",
          "predicateTerm": "IS_UNIT_FOR",
          "object": "LBORRES"
        },
        "mandatoryVariable": true,
        "mandatoryValue": false,
        "vlmTarget": true
      },
      {
        "name": "LBSTRESC",
        "dataElementConceptId": "C70856",
        "isNonStandard": false,
        "role": "Qualifier",
        "dataType": "float",
        "length": 12,
        "format": "12.4",
        "significantDigits": 4,
        "relationship": {
          "subject": "LBSTRESC",
          "linkingPhrase": "is the result of the test in",
          "predicateTerm": "IS_RESULT_OF",
          "object": "LBTESTCD"
        },
        "mandatoryVariable": true,
        "mandatoryValue": false,
        "originType": "Collected",
        "originSource": "Vendor",
        "vlmTarget": true
      },
      {
        "name": "LBSTRESN",
        "dataElementConceptId": "C70856",
        "isNonStandard": false,
        "role": "Qualifier",
        "dataType": "float",
        "length": 12,
        "format": "12.4",
        "significantDigits": 4,
        "relationship": {
          "subject": "LBSTRESN",
          "linkingPhrase": "is the result of the test in",
          "predicateTerm": "IS_RESULT_OF",
          "object": "LBTESTCD"
        },
        "mandatoryVariable": true,
        "mandatoryValue": false,
        "originType": "Collected",
        "originSource": "Vendor",
        "vlmTarget": true
      },
      {
        "name": "LBSTRESU",
        "dataElementConceptId": "C67365",
        "isNonStandard": false,
        "codelist": {
          "conceptId": "C71620",
          "submissionValue": "UNIT",
          "href": "https://evsexplore.semantics.cancer.gov/evsexplore/concept/ncit/C71620"
        },
        "assignedTerm": {
          "conceptId": "C67397",
          "value": "ukat/L"
        },
        "role": "Qualifier",
        "relationship": {
          "subject": "LBSTRESU",
          "linkingPhrase": "is the unit for the value in",
          "predicateTerm": "IS_UNIT_FOR",
          "object": "LBSTRESN"
        },
        "mandatoryVariable": true,
        "mandatoryValue": false,
        "vlmTarget": true
      },
      {
        "name": "LBLOINC",
        "isNonStandard": false,
        "assignedTerm": {
          "value": "6768-6"
        },
        "role": "Qualifier",
        "relationship": {
          "subject": "LBLOINC",
          "linkingPhrase": "identifies an observation described by",
          "predicateTerm": "IDENTIFIES_OBSERVATION",
          "object": "LBTESTCD"
        },
        "mandatoryVariable": false,
        "mandatoryValue": false
      },
      {
        "name": "LBSPEC",
        "dataElementConceptId": "C70713",
        "isNonStandard": false,
        "codelist": {
          "conceptId": "C78734",
          "submissionValue": "SPECTYPE",
          "href": "https://evsexplore.semantics.cancer.gov/evsexplore/concept/ncit/C78734"
        },
        "assignedTerm": {
          "conceptId": "C105706",
          "value": "SERUM OR PLASMA"
        },
        "role": "Qualifier",
        "relationship": {
          "subject": "LBSPEC",
          "linkingPhrase": "is the specimen tested in",
          "predicateTerm": "IS_SPECIMEN_TESTED_IN",
          "object": "LBTESTCD"
        },
        "mandatoryVariable": true,
        "mandatoryValue": false,
        "comparator": "EQ"
      },
      {
        "name": "LBFAST",
        "dataElementConceptId": "C93566",
        "isNonStandard": false,
        "codelist": {
          "conceptId": "C66742",
          "submissionValue": "NY",
          "href": "https://evsexplore.semantics.cancer.gov/evsexplore/concept/ncit/C66742"
        },
        "subsetCodelist": "NY_NY",
        "valueList": [
          "N",
          "Y"
        ],
        "role": "Qualifier",
        "relationship": {
          "subject": "LBFAST",
          "linkingPhrase": "is the subject's fasting status during the performance of the test in",
          "predicateTerm": "IS_SUBJECT_STATE_FOR",
          "object": "LBTESTCD"
        },
        "mandatoryVariable": false,
        "mandatoryValue": false
      },
      {
        "name": "LBDTC",
        "dataElementConceptId": "C82515",
        "isNonStandard": false,
        "role": "Timing",
        "relationship": {
          "subject": "LBDTC",
          "linkingPhrase": "is the date of occurrence for",
          "predicateTerm": "IS_TIMING_FOR",
          "object": "LBTESTCD"
        },
        "mandatoryVariable": true,
        "mandatoryValue": false
      }
    ]
  },
  {
    "_links": {
      "parentBiomedicalConcept": {
        "href": "/mdr/bc/biomedicalconcepts/C64470",
        "title": "Absolute Basophil Count",
        "type": "Biomedical Concept"
      },
      "parentPackage": {
        "href": "/mdr/specializations/sdtm/packages/2025-12-16/datasetspecializations",
        "title": "SDTM Dataset Specialization Package Effective 2025-12-16",
        "type": "SDTM Dataset Specialization Package"
      },
      "self": {
        "href": "/mdr/specializations/sdtm/datasetspecializations/BASOBLD",
        "title": "Basophil Count in Blood",
        "type": "SDTM Dataset Specialization"
      }
    },
    "datasetSpecializationId": "BASOBLD",
    "domain": "LB",
    "shortName": "Basophil Count in Blood",
    "source": "LB.LBTESTCD",
    "sdtmigStartVersion": "3-2",
    "sdtmigEndVersion": "",
    "variables": [
      {
        "name": "LBTESTCD",
        "isNonStandard": false,
        "codelist": {
          "conceptId": "C65047",
          "submissionValue": "LBTESTCD",
          "href": "https://evsexplore.semantics.cancer.gov/evsexplore/concept/ncit/C65047"
        },
        "assignedTerm": {
          "conceptId": "C64470",
          "value": "BASO"
        },
        "role": "Topic",
        "relationship": {
          "subject": "LBTESTCD",
          "linkingPhrase": "is the code for the value in",
          "predicateTerm": "IS_DECODED_BY",
          "object": "LBTEST"
        },
        "mandatoryVariable": true,
        "mandatoryValue": true,
        "comparator": "EQ"
      },
      {
        "name": "LBTEST",
        "isNonStandard": false,
        "codelist": {
          "conceptId": "C67154",
          "submissionValue": "LBTEST",
          "href": "https://evsexplore.semantics.cancer.gov/evsexplore/concept/ncit/C67154"
        },
        "assignedTerm": {
          "conceptId": "C64470",
          "value": "Basophils"
        },
        "role": "Qualifier",
        "relationship": {
          "subject": "LBTEST",
          "linkingPhrase": "decodes the value in",
          "predicateTerm": "DECODES",
          "object": "LBTESTCD"
        },
        "mandatoryVariable": true,
        "mandatoryValue": true
      },
      {
        "name": "LBCAT",
        "isNonStandard": false,
        "assignedTerm": {
          "value": "HEMATOLOGY"
        },
        "role": "Qualifier",
        "relationship": {
          "subject": "LBCAT",
          "linkingPhrase": "groups values in",
          "predicateTerm": "GROUPS",
          "object": "LBTESTCD"
        },
        "mandatoryVariable": true,
        "mandatoryValue": false
      },
      {
        "name": "LBORRES",
        "dataElementConceptId": "C70856",
        "isNonStandard": false,
        "role": "Qualifier",
        "dataType": "float",
        "length": 12,
        "format": "12.4",
        "significantDigits": 4,
        "relationship": {
          "subject": "LBORRES",
          "linkingPhrase": "is the result of the test in",
          "predicateTerm": "IS_RESULT_OF",
          "object": "LBTESTCD"
        },
        "mandatoryVariable": true,
        "mandatoryValue": false,
        "originType": "Collected",
        "originSource": "Vendor",
        "vlmTarget": true
      },
      {
        "name": "LBORRESU",
        "dataElementConceptId": "C67391",
        "isNonStandard": false,
        "codelist": {
          "conceptId": "C71620",
          "submissionValue": "UNIT",
          "href": "https://evsexplore.semantics.cancer.gov/evsexplore/concept/ncit/C71620"
        },
        "valueList": [
          "10^9/L",
          "10^6/L"
        ],
        "role": "Qualifier",
        "relationship": {
          "subject": "LBORRESU",
          "linkingPhrase": "is the unit for the value in",
          "predicateTerm": "IS_UNIT_FOR",
          "object": "LBORRES"
        },
        "mandatoryVariable": true,
        "mandatoryValue": false,
        "vlmTarget": true
      },
      {
        "name": "LBSTRESC",
        "dataElementConceptId": "C70856",
        "isNonStandard": false,
        "role": "Qualifier",
        "dataType": "float",
        "length": 12,
        "format": "12.4",
        "significantDigits": 4,
        "relationship": {
          "subject": "LBSTRESC",
          "linkingPhrase": "is the result of the test in",
          "predicateTerm": "IS_RESULT_OF",
          "object": "LBTESTCD"
        },
        "mandatoryVariable": true,
        "mandatoryValue": false,
        "originType": "Collected",
        "originSource": "Vendor",
        "vlmTarget": true
      },
      {
        "name": "LBSTRESN",
        "dataElementConceptId": "C70856",
        "isNonStandard": false,
        "role": "Qualifier",
        "dataType": "float",
        "length": 12,
        "format": "12.4",
        "significantDigits": 4,
        "relationship": {
          "subject": "LBSTRESN",
          "linkingPhrase": "is the result of the test in",
          "predicateTerm": "IS_RESULT_OF",
          "object": "LBTESTCD"
        },
        "mandatoryVariable": true,
        "mandatoryValue": false,
        "originType": "Collected",
        "originSource": "Vendor",
        "vlmTarget": true
      },
      {
        "name": "LBSTRESU",
        "dataElementConceptId": "C67391",
        "isNonStandard": false,
        "codelist": {
          "conceptId": "C71620",
          "submissionValue": "UNIT",
          "href": "https://evsexplore.semantics.cancer.gov/evsexplore/concept/ncit/C71620"
        },
        "assignedTerm": {
          "conceptId": "C67255",
          "value": "10^9/L"
        },
        "role": "Qualifier",
        "relationship": {
          "subject": "LBSTRESU",
          "linkingPhrase": "is the unit for the value in",
          "predicateTerm": "IS_UNIT_FOR",
          "object": "LBSTRESN"
        },
        "mandatoryVariable": true,
        "mandatoryValue": false,
        "vlmTarget": true
      },
      {
        "name": "LBLOINC",
        "isNonStandard": false,
        "assignedTerm": {
          "value": "26444-0"
        },
        "role": "Qualifier",
        "relationship": {
          "subject": "LBLOINC",
          "linkingPhrase": "identifies an observation described by",
          "predicateTerm": "IDENTIFIES_OBSERVATION",
          "object": "LBTESTCD"
        },
        "mandatoryVariable": false,
        "mandatoryValue": false
      },
      {
        "name": "LBSPEC",
        "dataElementConceptId": "C70713",
        "isNonStandard": false,
        "codelist": {
          "conceptId": "C78734",
          "submissionValue": "SPECTYPE",
          "href": "https://evsexplore.semantics.cancer.gov/evsexplore/concept/ncit/C78734"
        },
        "assignedTerm": {
          "conceptId": "C12434",
          "value": "BLOOD"
        },
        "role": "Qualifier",
        "relationship": {
          "subject": "LBSPEC",
          "linkingPhrase": "is the specimen tested in",
          "predicateTerm": "IS_SPECIMEN_TESTED_IN",
          "object": "LBTESTCD"
        },
        "mandatoryVariable": true,
        "mandatoryValue": false,
        "comparator": "EQ"
      },
      {
        "name": "LBFAST",
        "dataElementConceptId": "C93566",
        "isNonStandard": false,
        "codelist": {
          "conceptId": "C66742",
          "submissionValue": "NY",
          "href": "https://evsexplore.semantics.cancer.gov/evsexplore/concept/ncit/C66742"
        },
        "subsetCodelist": "NY_NY",
        "valueList": [
          "N",
          "Y"
        ],
        "role": "Qualifier",
        "relationship": {
          "subject": "LBFAST",
          "linkingPhrase": "is the subject's fasting status during the performance of the test in",
          "predicateTerm": "IS_SUBJECT_STATE_FOR",
          "object": "LBTESTCD"
        },
        "mandatoryVariable": false,
        "mandatoryValue": false
      },
      {
        "name": "LBDTC",
        "dataElementConceptId": "C82515",
        "isNonStandard": false,
        "role": "Timing",
        "relationship": {
          "subject": "LBDTC",
          "linkingPhrase": "is the date of occurrence for",
          "predicateTerm": "IS_TIMING_FOR",
          "object": "LBTESTCD"
        },
        "mandatoryVariable": true,
        "mandatoryValue": false
      }
    ]
  },
  {
    "_links": {
      "parentBiomedicalConcept": {
        "href": "/mdr/bc/biomedicalconcepts/C64547",
        "title": "Creatinine Measurement",
        "type": "Biomedical Concept"
      },
      "parentPackage": {
        "href": "/mdr/specializations/sdtm/packages/2025-12-16/datasetspecializations",
        "title": "SDTM Dataset Specialization Package Effective 2025-12-16",
        "type": "SDTM Dataset Specialization Package"
      },
      "self": {
        "href": "/mdr/specializations/sdtm/datasetspecializations/CREATURIN",
        "title": "Creatinine Concentration in Urine",
        "type": "SDTM Dataset Specialization"
      }
    },
    "datasetSpecializationId": "CREATURIN",
    "domain": "LB",
    "shortName": "Creatinine Concentration in Urine",
    "source": "LB.LBTESTCD",
    "sdtmigStartVersion": "3-2",
    "sdtmigEndVersion": "",
    "variables": [
      {
        "name": "LBTESTCD",
        "isNonStandard": false,
        "codelist": {
          "conceptId": "C65047",
          "submissionValue": "LBTESTCD",
          "href": "https://evsexplore.semantics.cancer.gov/evsexplore/concept/ncit/C65047"
        },
        "assignedTerm": {
          "conceptId": "C64547",
          "value": "CREAT"
        },
        "role": "Topic",
        "relationship": {
          "subject": "LBTESTCD",
          "linkingPhrase": "is the code for the value in",
          "predicateTerm": "IS_DECODED_BY",
          "object": "LBTEST"
        },
        "mandatoryVariable": true,
        "mandatoryValue": true,
        "comparator": "EQ"
      },
      {
        "name": "LBTEST",
        "isNonStandard": false,
        "codelist": {
          "conceptId": "C67154",
          "submissionValue": "LBTEST",
          "href": "https://evsexplore.semantics.cancer.gov/evsexplore/concept/ncit/C67154"
        },
        "assignedTerm": {
          "conceptId": "C64547",
          "value": "Creatinine"
        },
        "role": "Qualifier",
        "relationship": {
          "subject": "LBTEST",
          "linkingPhrase": "decodes the value in",
          "predicateTerm": "DECODES",
          "object": "LBTESTCD"
        },
        "mandatoryVariable": true,
        "mandatoryValue": true
      },
      {
        "name": "LBCAT",
        "isNonStandard": false,
        "assignedTerm": {
          "value": "CHEMISTRY"
        },
        "role": "Qualifier",
        "relationship": {
          "subject": "LBCAT",
          "linkingPhrase": "groups values in",
          "predicateTerm": "GROUPS",
          "object": "LBTESTCD"
        },
        "mandatoryVariable": true,
        "mandatoryValue": false
      },
      {
        "name": "LBORRES",
        "dataElementConceptId": "C70856",
        "isNonStandard": false,
        "role": "Qualifier",
        "dataType": "float",
        "length": 12,
        "format": "12.4",
        "significantDigits": 4,
        "relationship": {
          "subject": "LBORRES",
          "linkingPhrase": "is the result of the test in",
          "predicateTerm": "IS_RESULT_OF",
          "object": "LBTESTCD"
        },
        "mandatoryVariable": true,
        "mandatoryValue": false,
        "originType": "Collected",
        "originSource": "Vendor",
        "vlmTarget": true
      },
      {
        "name": "LBORRESU",
        "dataElementConceptId": "C48207",
        "isNonStandard": false,
        "codelist": {
          "conceptId": "C71620",
          "submissionValue": "UNIT",
          "href": "https://evsexplore.semantics.cancer.gov/evsexplore/concept/ncit/C71620"
        },
        "valueList": [
          "mg/dL",
          "mg/L",
          "mmol/L",
          "umol/L"
        ],
        "role": "Qualifier",
        "relationship": {
          "subject": "LBORRESU",
          "linkingPhrase": "is the unit for the value in",
          "predicateTerm": "IS_UNIT_FOR",
          "object": "LBORRES"
        },
        "mandatoryVariable": true,
        "mandatoryValue": false,
        "vlmTarget": true
      },
      {
        "name": "LBSTRESC",
        "dataElementConceptId": "C70856",
        "isNonStandard": false,
        "role": "Qualifier",
        "dataType": "float",
        "length": 12,
        "format": "12.4",
        "significantDigits": 4,
        "relationship": {
          "subject": "LBSTRESC",
          "linkingPhrase": "is the result of the test in",
          "predicateTerm": "IS_RESULT_OF",
          "object": "LBTESTCD"
        },
        "mandatoryVariable": true,
        "mandatoryValue": false,
        "originType": "Collected",
        "originSource": "Vendor",
        "vlmTarget": true
      },
      {
        "name": "LBSTRESN",
        "dataElementConceptId": "C70856",
        "isNonStandard": false,
        "role": "Qualifier",
        "dataType": "float",
        "length": 12,
        "format": "12.4",
        "significantDigits": 4,
        "relationship": {
          "subject": "LBSTRESN",
          "linkingPhrase": "is the result of the test in",
          "predicateTerm": "IS_RESULT_OF",
          "object": "LBTESTCD"
        },
        "mandatoryVariable": true,
        "mandatoryValue": false,
        "originType": "Collected",
        "originSource": "Vendor",
        "vlmTarget": true
      },
      {
        "name": "LBSTRESU",
        "dataElementConceptId": "C48207",
        "isNonStandard": false,
        "codelist": {
          "conceptId": "C71620",
          "submissionValue": "UNIT",
          "href": "https://evsexplore.semantics.cancer.gov/evsexplore/concept/ncit/C71620"
        },
        "assignedTerm": {
          "conceptId": "C64387",
          "value": "mmol/L"
        },
        "role": "Qualifier",
        "relationship": {
          "subject": "LBSTRESU",
          "linkingPhrase": "is the unit for the value in",
          "predicateTerm": "IS_UNIT_FOR",
          "object": "LBSTRESN"
        },
        "mandatoryVariable": true,
        "mandatoryValue": false,
        "vlmTarget": true
      },
      {
        "name": "LBLOINC",
        "isNonStandard": false,
        "valueList": [
          "14683-7",
          "2161-8"
        ],
        "role": "Qualifier",
        "relationship": {
          "subject": "LBLOINC",
          "linkingPhrase": "identifies an observation described by",
          "predicateTerm": "IDENTIFIES_OBSERVATION",
          "object": "LBTESTCD"
        },
        "mandatoryVariable": false,
        "mandatoryValue": false
      },
      {
        "name": "LBSPEC",
        "dataElementConceptId": "C70713",
        "isNonStandard": false,
        "codelist": {
          "conceptId": "C78734",
          "submissionValue": "SPECTYPE",
          "href": "https://evsexplore.semantics.cancer.gov/evsexplore/concept/ncit/C78734"
        },
        "assignedTerm": {
          "conceptId": "C13283",
          "value": "URINE"
        },
        "role": "Qualifier",
        "relationship": {
          "subject": "LBSPEC",
          "linkingPhrase": "is the specimen tested in",
          "predicateTerm": "IS_SPECIMEN_TESTED_IN",
          "object": "LBTESTCD"
        },
        "mandatoryVariable": true,
        "mandatoryValue": false,
        "comparator": "EQ"
      },
      {
        "name": "LBFAST",
        "dataElementConceptId": "C93566",
        "isNonStandard": false,
        "codelist": {
          "conceptId": "C66742",
          "submissionValue": "NY",
          "href": "https://evsexplore.semantics.cancer.gov/evsexplore/concept/ncit/C66742"
        },
        "subsetCodelist": "NY_NY",
        "valueList": [
          "N",
          "Y"
        ],
        "role": "Qualifier",
        "relationship": {
          "subject": "LBFAST",
          "linkingPhrase": "is the subject's fasting status during the performance of the test in",
          "predicateTerm": "IS_SUBJECT_STATE_FOR",
          "object": "LBTESTCD"
        },
        "mandatoryVariable": false,
        "mandatoryValue": false
      },
      {
        "name": "LBDTC",
        "dataElementConceptId": "C82515",
        "isNonStandard": false,
        "role": "Timing",
        "relationship": {
          "subject": "LBDTC",
          "linkingPhrase": "is the date of occurrence for",
          "predicateTerm": "IS_TIMING_FOR",
          "object": "LBTESTCD"
        },
        "mandatoryVariable": true,
        "mandatoryValue": false
      }
    ]
  },
  {
    "_links": {
      "parentBiomedicalConcept": {
        "href": "/mdr/bc/biomedicalconcepts/C105585",
        "title": "Glucose Measurement",
        "type": "Biomedical Concept"
      },
      "parentPackage": {
        "href": "/mdr/specializations/sdtm/packages/2025-12-16/datasetspecializations",
        "title": "SDTM Dataset Specialization Package Effective 2025-12-16",
        "type": "SDTM Dataset Specialization Package"
      },
      "self": {
        "href": "/mdr/specializations/sdtm/datasetspecializations/GLUCBLD",
        "title": "Glucose Concentration in Blood",
        "type": "SDTM Dataset Specialization"
      }
    },
    "datasetSpecializationId": "GLUCBLD",
    "domain": "LB",
    "shortName": "Glucose Concentration in Blood",
    "source": "LB.LBTESTCD",
    "sdtmigStartVersion": "3-2",
    "sdtmigEndVersion": "",
    "variables": [
      {
        "name": "LBTESTCD",
        "isNonStandard": false,
        "codelist": {
          "conceptId": "C65047",
          "submissionValue": "LBTESTCD",
          "href": "https://evsexplore.semantics.cancer.gov/evsexplore/concept/ncit/C65047"
        },
        "assignedTerm": {
          "conceptId": "C105585",
          "value": "GLUC"
        },
        "role": "Topic",
        "relationship": {
          "subject": "LBTESTCD",
          "linkingPhrase": "is the code for the value in",
          "predicateTerm": "IS_DECODED_BY",
          "object": "LBTEST"
        },
        "mandatoryVariable": true,
        "mandatoryValue": true,
        "comparator": "EQ"
      },
      {
        "name": "LBTEST",
        "isNonStandard": false,
        "codelist": {
          "conceptId": "C67154",
          "submissionValue": "LBTEST",
          "href": "https://evsexplore.semantics.cancer.gov/evsexplore/concept/ncit/C67154"
        },
        "assignedTerm": {
          "conceptId": "C105585",
          "value": "Glucose"
        },
        "role": "Qualifier",
        "relationship": {
          "subject": "LBTEST",
          "linkingPhrase": "decodes the value in",
          "predicateTerm": "DECODES",
          "object": "LBTESTCD"
        },
        "mandatoryVariable": true,
        "mandatoryValue": true
      },
      {
        "name": "LBCAT",
        "isNonStandard": false,
        "assignedTerm": {
          "value": "CHEMISTRY"
        },
        "role": "Qualifier",
        "relationship": {
          "subject": "LBCAT",
          "linkingPhrase": "groups values in",
          "predicateTerm": "GROUPS",
          "object": "LBTESTCD"
        },
        "mandatoryVariable": true,
        "mandatoryValue": false
      },
      {
        "name": "LBORRES",
        "dataElementConceptId": "C70856",
        "isNonStandard": false,
        "role": "Qualifier",
        "dataType": "float",
        "length": 12,
        "format": "12.4",
        "significantDigits": 4,
        "relationship": {
          "subject": "LBORRES",
          "linkingPhrase": "is the result of the test in",
          "predicateTerm": "IS_RESULT_OF",
          "object": "LBTESTCD"
        },
        "mandatoryVariable": true,
        "mandatoryValue": false,
        "originType": "Collected",
        "originSource": "Vendor",
        "vlmTarget": true
      },
      {
        "name": "LBORRESU",
        "dataElementConceptId": "C48207",
        "isNonStandard": false,
        "codelist": {
          "conceptId": "C71620",
          "submissionValue": "UNIT",
          "href": "https://evsexplore.semantics.cancer.gov/evsexplore/concept/ncit/C71620"
        },
        "valueList": [
          "mg/dL",
          "mmol/L"
        ],
        "role": "Qualifier",
        "relationship": {
          "subject": "LBORRESU",
          "linkingPhrase": "is the unit for the value in",
          "predicateTerm": "IS_UNIT_FOR",
          "object": "LBORRES"
        },
        "mandatoryVariable": true,
        "mandatoryValue": false,
        "vlmTarget": true
      },
      {
        "name": "LBSTRESC",
        "dataElementConceptId": "C70856",
        "isNonStandard": false,
        "role": "Qualifier",
        "relationship": {
          "subject": "LBSTRESC",
          "linkingPhrase": "is the result of the test in",
          "predicateTerm": "IS_RESULT_OF",
          "object": "LBTESTCD"
        },
        "mandatoryVariable": true,
        "mandatoryValue": false,
        "originType": "Collected",
        "originSource": "Vendor",
        "vlmTarget": true
      },
      {
        "name": "LBSTRESN",
        "dataElementConceptId": "C70856",
        "isNonStandard": false,
        "role": "Qualifier",
        "relationship": {
          "subject": "LBSTRESN",
          "linkingPhrase": "is the result of the test in",
          "predicateTerm": "IS_RESULT_OF",
          "object": "LBTESTCD"
        },
        "mandatoryVariable": true,
        "mandatoryValue": false,
        "originType": "Collected",
        "originSource": "Vendor",
        "vlmTarget": true
      },
      {
        "name": "LBSTRESU",
        "dataElementConceptId": "C48207",
        "isNonStandard": false,
        "codelist": {
          "conceptId": "C71620",
          "submissionValue": "UNIT",
          "href": "https://evsexplore.semantics.cancer.gov/evsexplore/concept/ncit/C71620"
        },
        "assignedTerm": {
          "conceptId": "C64387",
          "value": "mmol/L"
        },
        "role": "Qualifier",
        "relationship": {
          "subject": "LBSTRESU",
          "linkingPhrase": "is the unit for the value in",
          "predicateTerm": "IS_UNIT_FOR",
          "object": "LBSTRESN"
        },
        "mandatoryVariable": true,
        "mandatoryValue": false,
        "vlmTarget": true
      },
      {
        "name": "LBLOINC",
        "isNonStandard": false,
        "valueList": [
          "2339-0",
          "15074-8"
        ],
        "role": "Qualifier",
        "relationship": {
          "subject": "LBLOINC",
          "linkingPhrase": "identifies an observation described by",
          "predicateTerm": "IDENTIFIES_OBSERVATION",
          "object": "LBTESTCD"
        },
        "mandatoryVariable": false,
        "mandatoryValue": false
      },
      {
        "name": "LBSPEC",
        "dataElementConceptId": "C70713",
        "isNonStandard": false,
        "codelist": {
          "conceptId": "C78734",
          "submissionValue": "SPECTYPE",
          "href": "https://evsexplore.semantics.cancer.gov/evsexplore/concept/ncit/C78734"
        },
        "assignedTerm": {
          "conceptId": "C12434",
          "value": "BLOOD"
        },
        "role": "Qualifier",
        "relationship": {
          "subject": "LBSPEC",
          "linkingPhrase": "is the specimen tested in",
          "predicateTerm": "IS_SPECIMEN_TESTED_IN",
          "object": "LBTESTCD"
        },
        "mandatoryVariable": true,
        "mandatoryValue": false,
        "comparator": "EQ"
      },
      {
        "name": "LBMETHOD",
        "dataElementConceptId": "C82535",
        "isNonStandard": false,
        "codelist": {
          "conceptId": "C85492",
          "submissionValue": "METHOD",
          "href": "https://evsexplore.semantics.cancer.gov/evsexplore/concept/ncit/C85492"
        },
        "role": "Qualifier",
        "relationship": {
          "subject": "LBMETHOD",
          "linkingPhrase": "is the method for the test in",
          "predicateTerm": "SPECIFIES",
          "object": "LBTESTCD"
        },
        "mandatoryVariable": true,
        "mandatoryValue": false
      },
      {
        "name": "LBFAST",
        "dataElementConceptId": "C93566",
        "isNonStandard": false,
        "codelist": {
          "conceptId": "C66742",
          "submissionValue": "NY",
          "href": "https://evsexplore.semantics.cancer.gov/evsexplore/concept/ncit/C66742"
        },
        "subsetCodelist": "NY_NY",
        "valueList": [
          "N",
          "Y"
        ],
        "role": "Qualifier",
        "relationship": {
          "subject": "LBFAST",
          "linkingPhrase": "is the subject's fasting status during the performance of the test in",
          "predicateTerm": "IS_SUBJECT_STATE_FOR",
          "object": "LBTESTCD"
        },
        "mandatoryVariable": false,
        "mandatoryValue": false
      },
      {
        "name": "LBDTC",
        "dataElementConceptId": "C82515",
        "isNonStandard": false,
        "role": "Timing",
        "relationship": {
          "subject": "LBDTC",
          "linkingPhrase": "is the date of occurrence for",
          "predicateTerm": "IS_TIMING_FOR",
          "object": "LBTESTCD"
        },
        "mandatoryVariable": true,
        "mandatoryValue": false
      }
    ]
  },
  {
    "_links": {
      "parentBiomedicalConcept": {
        "href": "/mdr/bc/biomedicalconcepts/C105585",
        "title": "Glucose Measurement",
        "type": "Biomedical Concept"
      },
      "parentPackage": {
        "href": "/mdr/specializations/sdtm/packages/2025-12-16/datasetspecializations",
        "title": "SDTM Dataset Specialization Package Effective 2025-12-16",
        "type": "SDTM Dataset Specialization Package"
      },
      "self": {
        "href": "/mdr/specializations/sdtm/datasetspecializations/GLUCSER",
        "title": "Glucose Concentration in Serum",
        "type": "SDTM Dataset Specialization"
      }
    },
    "datasetSpecializationId": "GLUCSER",
    "domain": "LB",
    "shortName": "Glucose Concentration in Serum",
    "source": "LB.LBTESTCD",
    "sdtmigStartVersion": "3-2",
    "sdtmigEndVersion": "",
    "variables": [
      {
        "name": "LBTESTCD",
        "isNonStandard": false,
        "codelist": {
          "conceptId": "C65047",
          "submissionValue": "LBTESTCD",
          "href": "https://evsexplore.semantics.cancer.gov/evsexplore/concept/ncit/C65047"
        },
        "assignedTerm": {
          "conceptId": "C105585",
          "value": "GLUC"
        },
        "role": "Topic",
        "relationship": {
          "subject": "LBTESTCD",
          "linkingPhrase": "is the code for the value in",
          "predicateTerm": "IS_DECODED_BY",
          "object": "LBTEST"
        },
        "mandatoryVariable": true,
        "mandatoryValue": true,
        "comparator": "EQ"
      },
      {
        "name": "LBTEST",
        "isNonStandard": false,
        "codelist": {
          "conceptId": "C67154",
          "submissionValue": "LBTEST",
          "href": "https://evsexplore.semantics.cancer.gov/evsexplore/concept/ncit/C67154"
        },
        "assignedTerm": {
          "conceptId": "C105585",
          "value": "Glucose"
        },
        "role": "Qualifier",
        "relationship": {
          "subject": "LBTEST",
          "linkingPhrase": "decodes the value in",
          "predicateTerm": "DECODES",
          "object": "LBTESTCD"
        },
        "mandatoryVariable": true,
        "mandatoryValue": true
      },
      {
        "name": "LBCAT",
        "isNonStandard": false,
        "assignedTerm": {
          "value": "CHEMISTRY"
        },
        "role": "Qualifier",
        "relationship": {
          "subject": "LBCAT",
          "linkingPhrase": "groups values in",
          "predicateTerm": "GROUPS",
          "object": "LBTESTCD"
        },
        "mandatoryVariable": true,
        "mandatoryValue": false
      },
      {
        "name": "LBORRES",
        "dataElementConceptId": "C70856",
        "isNonStandard": false,
        "role": "Qualifier",
        "dataType": "float",
        "length": 12,
        "format": "12.4",
        "significantDigits": 4,
        "relationship": {
          "subject": "LBORRES",
          "linkingPhrase": "is the result of the test in",
          "predicateTerm": "IS_RESULT_OF",
          "object": "LBTESTCD"
        },
        "mandatoryVariable": true,
        "mandatoryValue": false,
        "originType": "Collected",
        "originSource": "Vendor",
        "vlmTarget": true
      },
      {
        "name": "LBORRESU",
        "dataElementConceptId": "C48207",
        "isNonStandard": false,
        "codelist": {
          "conceptId": "C71620",
          "submissionValue": "UNIT",
          "href": "https://evsexplore.semantics.cancer.gov/evsexplore/concept/ncit/C71620"
        },
        "valueList": [
          "mg/dL",
          "g/L",
          "mmol/L"
        ],
        "role": "Qualifier",
        "relationship": {
          "subject": "LBORRESU",
          "linkingPhrase": "is the unit for the value in",
          "predicateTerm": "IS_UNIT_FOR",
          "object": "LBORRES"
        },
        "mandatoryVariable": true,
        "mandatoryValue": false,
        "vlmTarget": true
      },
      {
        "name": "LBSTRESC",
        "dataElementConceptId": "C70856",
        "isNonStandard": false,
        "role": "Qualifier",
        "dataType": "float",
        "length": 12,
        "format": "12.4",
        "significantDigits": 4,
        "relationship": {
          "subject": "LBSTRESC",
          "linkingPhrase": "is the result of the test in",
          "predicateTerm": "IS_RESULT_OF",
          "object": "LBTESTCD"
        },
        "mandatoryVariable": true,
        "mandatoryValue": false,
        "originType": "Collected",
        "originSource": "Vendor",
        "vlmTarget": true
      },
      {
        "name": "LBSTRESN",
        "dataElementConceptId": "C70856",
        "isNonStandard": false,
        "role": "Qualifier",
        "dataType": "float",
        "length": 12,
        "format": "12.4",
        "significantDigits": 4,
        "relationship": {
          "subject": "LBSTRESN",
          "linkingPhrase": "is the result of the test in",
          "predicateTerm": "IS_RESULT_OF",
          "object": "LBTESTCD"
        },
        "mandatoryVariable": true,
        "mandatoryValue": false,
        "originType": "Collected",
        "originSource": "Vendor",
        "vlmTarget": true
      },
      {
        "name": "LBSTRESU",
        "dataElementConceptId": "C48207",
        "isNonStandard": false,
        "codelist": {
          "conceptId": "C71620",
          "submissionValue": "UNIT",
          "href": "https://evsexplore.semantics.cancer.gov/evsexplore/concept/ncit/C71620"
        },
        "assignedTerm": {
          "conceptId": "C64387",
          "value": "mmol/L"
        },
        "role": "Qualifier",
        "relationship": {
          "subject": "LBSTRESU",
          "linkingPhrase": "is the unit for the value in",
          "predicateTerm": "IS_UNIT_FOR",
          "object": "LBSTRESN"
        },
        "mandatoryVariable": false,
        "mandatoryValue": false,
        "vlmTarget": true
      },
      {
        "name": "LBLOINC",
        "isNonStandard": false,
        "role": "Qualifier",
        "relationship": {
          "subject": "LBLOINC",
          "linkingPhrase": "identifies an observation described by",
          "predicateTerm": "IDENTIFIES_OBSERVATION",
          "object": "LBTESTCD"
        },
        "mandatoryVariable": false,
        "mandatoryValue": false
      },
      {
        "name": "LBSPEC",
        "dataElementConceptId": "C70713",
        "isNonStandard": false,
        "codelist": {
          "conceptId": "C78734",
          "submissionValue": "SPECTYPE",
          "href": "https://evsexplore.semantics.cancer.gov/evsexplore/concept/ncit/C78734"
        },
        "assignedTerm": {
          "conceptId": "C13325",
          "value": "SERUM"
        },
        "role": "Qualifier",
        "relationship": {
          "subject": "LBSPEC",
          "linkingPhrase": "is the specimen tested in",
          "predicateTerm": "IS_SPECIMEN_TESTED_IN",
          "object": "LBTESTCD"
        },
        "mandatoryVariable": true,
        "mandatoryValue": false,
        "comparator": "EQ"
      },
      {
        "name": "LBFAST",
        "dataElementConceptId": "C93566",
        "isNonStandard": false,
        "codelist": {
          "conceptId": "C66742",
          "submissionValue": "NY",
          "href": "https://evsexplore.semantics.cancer.gov/evsexplore/concept/ncit/C66742"
        },
        "subsetCodelist": "NY_NY",
        "valueList": [
          "N",
          "Y"
        ],
        "role": "Qualifier",
        "relationship": {
          "subject": "LBFAST",
          "linkingPhrase": "is the subject's fasting status during the performance of the test in",
          "predicateTerm": "IS_SUBJECT_STATE_FOR",
          "object": "LBTESTCD"
        },
        "mandatoryVariable": false,
        "mandatoryValue": false
      },
      {
        "name": "LBDTC",
        "dataElementConceptId": "C82515",
        "isNonStandard": false,
        "role": "Timing",
        "relationship": {
          "subject": "LBDTC",
          "linkingPhrase": "is the date of occurrence for",
          "predicateTerm": "IS_TIMING_FOR",
          "object": "LBTESTCD"
        },
        "mandatoryVariable": true,
        "mandatoryValue": false
      }
    ]
  },
  {
    "_links": {
      "parentBiomedicalConcept": {
        "href": "/mdr/bc/biomedicalconcepts/C64547",
        "title": "Creatinine Measurement",
        "type": "Biomedical Concept"
      },
      "parentPackage": {
        "href": "/mdr/specializations/sdtm/packages/2025-12-16/datasetspecializations",
        "title": "SDTM Dataset Specialization Package Effective 2025-12-16",
        "type": "SDTM Dataset Specialization Package"
      },
      "self": {
        "href": "/mdr/specializations/sdtm/datasetspecializations/CREATSERPL",
        "title": "Creatinine Concentration in Serum or Plasma",
        "type": "SDTM Dataset Specialization"
      }
    },
    "datasetSpecializationId": "CREATSERPL",
    "domain": "LB",
    "shortName": "Creatinine Concentration in Serum or Plasma",
    "source": "LB.LBTESTCD",
    "sdtmigStartVersion": "3-2",
    "sdtmigEndVersion": "",
    "variables": [
      {
        "name": "LBTESTCD",
        "isNonStandard": false,
        "codelist": {
          "conceptId": "C65047",
          "submissionValue": "LBTESTCD",
          "href": "https://evsexplore.semantics.cancer.gov/evsexplore/concept/ncit/C65047"
        },
        "assignedTerm": {
          "conceptId": "C64547",
          "value": "CREAT"
        },
        "role": "Topic",
        "relationship": {
          "subject": "LBTESTCD",
          "linkingPhrase": "is the code for the value in",
          "predicateTerm": "IS_DECODED_BY",
          "object": "LBTEST"
        },
        "mandatoryVariable": true,
        "mandatoryValue": true,
        "comparator": "EQ"
      },
      {
        "name": "LBTEST",
        "isNonStandard": false,
        "codelist": {
          "conceptId": "C67154",
          "submissionValue": "LBTEST",
          "href": "https://evsexplore.semantics.cancer.gov/evsexplore/concept/ncit/C67154"
        },
        "assignedTerm": {
          "conceptId": "C64547",
          "value": "Creatinine"
        },
        "role": "Qualifier",
        "relationship": {
          "subject": "LBTEST",
          "linkingPhrase": "decodes the value in",
          "predicateTerm": "DECODES",
          "object": "LBTESTCD"
        },
        "mandatoryVariable": true,
        "mandatoryValue": true
      },
      {
        "name": "LBCAT",
        "isNonStandard": false,
        "assignedTerm": {
          "value": "CHEMISTRY"
        },
        "role": "Qualifier",
        "relationship": {
          "subject": "LBCAT",
          "linkingPhrase": "groups values in",
          "predicateTerm": "GROUPS",
          "object": "LBTESTCD"
        },
        "mandatoryVariable": true,
        "mandatoryValue": false
      },
      {
        "name": "LBORRES",
        "dataElementConceptId": "C70856",
        "isNonStandard": false,
        "role": "Qualifier",
        "dataType": "float",
        "length": 12,
        "format": "12.4",
        "significantDigits": 4,
        "relationship": {
          "subject": "LBORRES",
          "linkingPhrase": "is the result of the test in",
          "predicateTerm": "IS_RESULT_OF",
          "object": "LBTESTCD"
        },
        "mandatoryVariable": true,
        "mandatoryValue": false,
        "originType": "Collected",
        "originSource": "Vendor",
        "vlmTarget": true
      },
      {
        "name": "LBORRESU",
        "dataElementConceptId": "C48207",
        "isNonStandard": false,
        "codelist": {
          "conceptId": "C71620",
          "submissionValue": "UNIT",
          "href": "https://evsexplore.semantics.cancer.gov/evsexplore/concept/ncit/C71620"
        },
        "valueList": [
          "mg/dL",
          "mg/L",
          "mmol/L",
          "umol/L"
        ],
        "role": "Qualifier",
        "relationship": {
          "subject": "LBORRESU",
          "linkingPhrase": "is the unit for the value in",
          "predicateTerm": "IS_UNIT_FOR",
          "object": "LBORRES"
        },
        "mandatoryVariable": true,
        "mandatoryValue": false,
        "vlmTarget": true
      },
      {
        "name": "LBSTRESC",
        "dataElementConceptId": "C70856",
        "isNonStandard": false,
        "role": "Qualifier",
        "dataType": "float",
        "length": 12,
        "format": "12.4",
        "significantDigits": 4,
        "relationship": {
          "subject": "LBSTRESC",
          "linkingPhrase": "is the result of the test in",
          "predicateTerm": "IS_RESULT_OF",
          "object": "LBTESTCD"
        },
        "mandatoryVariable": true,
        "mandatoryValue": false,
        "originType": "Collected",
        "originSource": "Vendor",
        "vlmTarget": true
      },
      {
        "name": "LBSTRESN",
        "dataElementConceptId": "C70856",
        "isNonStandard": false,
        "role": "Qualifier",
        "dataType": "float",
        "length": 12,
        "format": "12.4",
        "significantDigits": 4,
        "relationship": {
          "subject": "LBSTRESN",
          "linkingPhrase": "is the result of the test in",
          "predicateTerm": "IS_RESULT_OF",
          "object": "LBTESTCD"
        },
        "mandatoryVariable": true,
        "mandatoryValue": false,
        "originType": "Collected",
        "originSource": "Vendor",
        "vlmTarget": true
      },
      {
        "name": "LBSTRESU",
        "dataElementConceptId": "C48207",
        "isNonStandard": false,
        "codelist": {
          "conceptId": "C71620",
          "submissionValue": "UNIT",
          "href": "https://evsexplore.semantics.cancer.gov/evsexplore/concept/ncit/C71620"
        },
        "assignedTerm": {
          "conceptId": "C48508",
          "value": "umol/L"
        },
        "role": "Qualifier",
        "relationship": {
          "subject": "LBSTRESU",
          "linkingPhrase": "is the unit for the value in",
          "predicateTerm": "IS_UNIT_FOR",
          "object": "LBSTRESN"
        },
        "mandatoryVariable": true,
        "mandatoryValue": false,
        "vlmTarget": true
      },
      {
        "name": "LBLOINC",
        "isNonStandard": false,
        "valueList": [
          "2160-0",
          "14682-9"
        ],
        "role": "Qualifier",
        "relationship": {
          "subject": "LBLOINC",
          "linkingPhrase": "identifies an observation described by",
          "predicateTerm": "IDENTIFIES_OBSERVATION",
          "object": "LBTESTCD"
        },
        "mandatoryVariable": false,
        "mandatoryValue": false
      },
      {
        "name": "LBSPEC",
        "dataElementConceptId": "C70713",
        "isNonStandard": false,
        "codelist": {
          "conceptId": "C78734",
          "submissionValue": "SPECTYPE",
          "href": "https://evsexplore.semantics.cancer.gov/evsexplore/concept/ncit/C78734"
        },
        "assignedTerm": {
          "conceptId": "C105706",
          "value": "SERUM OR PLASMA"
        },
        "role": "Qualifier",
        "relationship": {
          "subject": "LBSPEC",
          "linkingPhrase": "is the specimen tested in",
          "predicateTerm": "IS_SPECIMEN_TESTED_IN",
          "object": "LBTESTCD"
        },
        "mandatoryVariable": true,
        "mandatoryValue": false,
        "comparator": "EQ"
      },
      {
        "name": "LBFAST",
        "dataElementConceptId": "C93566",
        "isNonStandard": false,
        "codelist": {
          "conceptId": "C66742",
          "submissionValue": "NY",
          "href": "https://evsexplore.semantics.cancer.gov/evsexplore/concept/ncit/C66742"
        },
        "subsetCodelist": "NY_NY",
        "valueList": [
          "N",
          "Y"
        ],
        "role": "Qualifier",
        "relationship": {
          "subject": "LBFAST",
          "linkingPhrase": "is the subject's fasting status during the performance of the test in",
          "predicateTerm": "IS_SUBJECT_STATE_FOR",
          "object": "LBTESTCD"
        },
        "mandatoryVariable": false,
        "mandatoryValue": false
      },
      {
        "name": "LBDTC",
        "dataElementConceptId": "C82515",
        "isNonStandard": false,
        "role": "Timing",
        "relationship": {
          "subject": "LBDTC",
          "linkingPhrase": "is the date of occurrence for",
          "predicateTerm": "IS_TIMING_FOR",
          "object": "LBTESTCD"
        },
        "mandatoryVariable": true,
        "mandatoryValue": false
      }
    ]
  },
  {
    "_links": {
      "parentBiomedicalConcept": {
        "href": "/mdr/bc/biomedicalconcepts/C105585",
        "title": "Glucose Measurement",
        "type": "Biomedical Concept"
      },
      "parentPackage": {
        "href": "/mdr/specializations/sdtm/packages/2025-12-16/datasetspecializations",
        "title": "SDTM Dataset Specialization Package Effective 2025-12-16",
        "type": "SDTM Dataset Specialization Package"
      },
      "self": {
        "href": "/mdr/specializations/sdtm/datasetspecializations/GLUCPL",
        "title": "Glucose Concentration in Plasma",
        "type": "SDTM Dataset Specialization"
      }
    },
    "datasetSpecializationId": "GLUCPL",
    "domain": "LB",
    "shortName": "Glucose Concentration in Plasma",
    "source": "LB.LBTESTCD",
    "sdtmigStartVersion": "3-2",
    "sdtmigEndVersion": "",
    "variables": [
      {
        "name": "LBTESTCD",
        "isNonStandard": false,
        "codelist": {
          "conceptId": "C65047",
          "submissionValue": "LBTESTCD",
          "href": "https://evsexplore.semantics.cancer.gov/evsexplore/concept/ncit/C65047"
        },
        "assignedTerm": {
          "conceptId": "C105585",
          "value": "GLUC"
        },
        "role": "Topic",
        "relationship": {
          "subject": "LBTESTCD",
          "linkingPhrase": "is the code for the value in",
          "predicateTerm": "IS_DECODED_BY",
          "object": "LBTEST"
        },
        "mandatoryVariable": true,
        "mandatoryValue": true,
        "comparator": "EQ"
      },
      {
        "name": "LBTEST",
        "isNonStandard": false,
        "codelist": {
          "conceptId": "C67154",
          "submissionValue": "LBTEST",
          "href": "https://evsexplore.semantics.cancer.gov/evsexplore/concept/ncit/C67154"
        },
        "assignedTerm": {
          "conceptId": "C105585",
          "value": "Glucose"
        },
        "role": "Qualifier",
        "relationship": {
          "subject": "LBTEST",
          "linkingPhrase": "decodes the value in",
          "predicateTerm": "DECODES",
          "object": "LBTESTCD"
        },
        "mandatoryVariable": true,
        "mandatoryValue": true
      },
      {
        "name": "LBCAT",
        "isNonStandard": false,
        "assignedTerm": {
          "value": "CHEMISTRY"
        },
        "role": "Qualifier",
        "relationship": {
          "subject": "LBCAT",
          "linkingPhrase": "groups values in",
          "predicateTerm": "GROUPS",
          "object": "LBTESTCD"
        },
        "mandatoryVariable": true,
        "mandatoryValue": false
      },
      {
        "name": "LBORRES",
        "dataElementConceptId": "C70856",
        "isNonStandard": false,
        "role": "Qualifier",
        "dataType": "float",
        "length": 12,
        "format": "12.4",
        "significantDigits": 4,
        "relationship": {
          "subject": "LBORRES",
          "linkingPhrase": "is the result of the test in",
          "predicateTerm": "IS_RESULT_OF",
          "object": "LBTESTCD"
        },
        "mandatoryVariable": true,
        "mandatoryValue": false,
        "originType": "Collected",
        "originSource": "Vendor",
        "vlmTarget": true
      },
      {
        "name": "LBORRESU",
        "dataElementConceptId": "C48207",
        "isNonStandard": false,
        "codelist": {
          "conceptId": "C71620",
          "submissionValue": "UNIT",
          "href": "https://evsexplore.semantics.cancer.gov/evsexplore/concept/ncit/C71620"
        },
        "valueList": [
          "mg/dL",
          "g/L",
          "mmol/L"
        ],
        "role": "Qualifier",
        "relationship": {
          "subject": "LBORRESU",
          "linkingPhrase": "is the unit for the value in",
          "predicateTerm": "IS_UNIT_FOR",
          "object": "LBORRES"
        },
        "mandatoryVariable": true,
        "mandatoryValue": false,
        "vlmTarget": true
      },
      {
        "name": "LBSTRESC",
        "dataElementConceptId": "C70856",
        "isNonStandard": false,
        "role": "Qualifier",
        "dataType": "float",
        "length": 12,
        "format": "12.4",
        "significantDigits": 4,
        "relationship": {
          "subject": "LBSTRESC",
          "linkingPhrase": "is the result of the test in",
          "predicateTerm": "IS_RESULT_OF",
          "object": "LBTESTCD"
        },
        "mandatoryVariable": true,
        "mandatoryValue": false,
        "originType": "Collected",
        "originSource": "Vendor",
        "vlmTarget": true
      },
      {
        "name": "LBSTRESN",
        "dataElementConceptId": "C70856",
        "isNonStandard": false,
        "role": "Qualifier",
        "dataType": "float",
        "length": 12,
        "format": "12.4",
        "significantDigits": 4,
        "relationship": {
          "subject": "LBSTRESN",
          "linkingPhrase": "is the result of the test in",
          "predicateTerm": "IS_RESULT_OF",
          "object": "LBTESTCD"
        },
        "mandatoryVariable": true,
        "mandatoryValue": false,
        "originType": "Collected",
        "originSource": "Vendor",
        "vlmTarget": true
      },
      {
        "name": "LBSTRESU",
        "dataElementConceptId": "C48207",
        "isNonStandard": false,
        "codelist": {
          "conceptId": "C71620",
          "submissionValue": "UNIT",
          "href": "https://evsexplore.semantics.cancer.gov/evsexplore/concept/ncit/C71620"
        },
        "assignedTerm": {
          "conceptId": "C64387",
          "value": "mmol/L"
        },
        "role": "Qualifier",
        "relationship": {
          "subject": "LBSTRESU",
          "linkingPhrase": "is the unit for the value in",
          "predicateTerm": "IS_UNIT_FOR",
          "object": "LBSTRESN"
        },
        "mandatoryVariable": true,
        "mandatoryValue": false,
        "vlmTarget": true
      },
      {
        "name": "LBLOINC",
        "isNonStandard": false,
        "role": "Qualifier",
        "relationship": {
          "subject": "LBLOINC",
          "linkingPhrase": "identifies an observation described by",
          "predicateTerm": "IDENTIFIES_OBSERVATION",
          "object": "LBTESTCD"
        },
        "mandatoryVariable": false,
        "mandatoryValue": false
      },
      {
        "name": "LBSPEC",
        "dataElementConceptId": "C70713",
        "isNonStandard": false,
        "codelist": {
          "conceptId": "C78734",
          "submissionValue": "SPECTYPE",
          "href": "https://evsexplore.semantics.cancer.gov/evsexplore/concept/ncit/C78734"
        },
        "assignedTerm": {
          "conceptId": "C13356",
          "value": "PLASMA"
        },
        "role": "Qualifier",
        "relationship": {
          "subject": "LBSPEC",
          "linkingPhrase": "is the specimen tested in",
          "predicateTerm": "IS_SPECIMEN_TESTED_IN",
          "object": "LBTESTCD"
        },
        "mandatoryVariable": true,
        "mandatoryValue": false,
        "comparator": "EQ"
      },
      {
        "name": "LBFAST",
        "dataElementConceptId": "C93566",
        "isNonStandard": false,
        "codelist": {
          "conceptId": "C66742",
          "submissionValue": "NY",
          "href": "https://evsexplore.semantics.cancer.gov/evsexplore/concept/ncit/C66742"
        },
        "subsetCodelist": "NY_NY",
        "valueList": [
          "N",
          "Y"
        ],
        "role": "Qualifier",
        "relationship": {
          "subject": "LBFAST",
          "linkingPhrase": "is the subject's fasting status during the performance of the test in",
          "predicateTerm": "IS_SUBJECT_STATE_FOR",
          "object": "LBTESTCD"
        },
        "mandatoryVariable": false,
        "mandatoryValue": false
      },
      {
        "name": "LBDTC",
        "dataElementConceptId": "C82515",
        "isNonStandard": false,
        "role": "Timing",
        "relationship": {
          "subject": "LBDTC",
          "linkingPhrase": "is the date of occurrence for",
          "predicateTerm": "IS_TIMING_FOR",
          "object": "LBTESTCD"
        },
        "mandatoryVariable": true,
        "mandatoryValue": false
      }
    ]
  },
  {
    "_links": {
      "parentBiomedicalConcept": {
        "href": "/mdr/bc/biomedicalconcepts/C105585",
        "title": "Glucose Measurement",
        "type": "Biomedical Concept"
      },
      "parentPackage": {
        "href": "/mdr/specializations/sdtm/packages/2025-12-16/datasetspecializations",
        "title": "SDTM Dataset Specialization Package Effective 2025-12-16",
        "type": "SDTM Dataset Specialization Package"
      },
      "self": {
        "href": "/mdr/specializations/sdtm/datasetspecializations/GLUCUA",
        "title": "Glucose Presence in Urine by Test Strip",
        "type": "SDTM Dataset Specialization"
      }
    },
    "datasetSpecializationId": "GLUCUA",
    "domain": "LB",
    "shortName": "Glucose Presence in Urine by Test Strip",
    "source": "LB.LBTESTCD",
    "sdtmigStartVersion": "3-2",
    "sdtmigEndVersion": "",
    "variables": [
      {
        "name": "LBTESTCD",
        "isNonStandard": false,
        "codelist": {
          "conceptId": "C65047",
          "submissionValue": "LBTESTCD",
          "href": "https://evsexplore.semantics.cancer.gov/evsexplore/concept/ncit/C65047"
        },
        "assignedTerm": {
          "conceptId": "C105585",
          "value": "GLUC"
        },
        "role": "Topic",
        "relationship": {
          "subject": "LBTESTCD",
          "linkingPhrase": "is the code for the value in",
          "predicateTerm": "IS_DECODED_BY",
          "object": "LBTEST"
        },
        "mandatoryVariable": true,
        "mandatoryValue": true,
        "comparator": "EQ"
      },
      {
        "name": "LBTEST",
        "isNonStandard": false,
        "codelist": {
          "conceptId": "C67154",
          "submissionValue": "LBTEST",
          "href": "https://evsexplore.semantics.cancer.gov/evsexplore/concept/ncit/C67154"
        },
        "assignedTerm": {
          "conceptId": "C105585",
          "value": "Glucose"
        },
        "role": "Qualifier",
        "relationship": {
          "subject": "LBTEST",
          "linkingPhrase": "decodes the value in",
          "predicateTerm": "DECODES",
          "object": "LBTESTCD"
        },
        "mandatoryVariable": true,
        "mandatoryValue": true
      },
      {
        "name": "LBCAT",
        "isNonStandard": false,
        "assignedTerm": {
          "value": "URINALYSIS"
        },
        "role": "Qualifier",
        "relationship": {
          "subject": "LBCAT",
          "linkingPhrase": "groups values in",
          "predicateTerm": "GROUPS",
          "object": "LBTESTCD"
        },
        "mandatoryVariable": true,
        "mandatoryValue": false
      },
      {
        "name": "LBORRES",
        "dataElementConceptId": "C70856",
        "isNonStandard": false,
        "role": "Qualifier",
        "dataType": "text",
        "length": 20,
        "relationship": {
          "subject": "LBORRES",
          "linkingPhrase": "is the result of the test in",
          "predicateTerm": "IS_RESULT_OF",
          "object": "LBTESTCD"
        },
        "mandatoryVariable": true,
        "mandatoryValue": false,
        "originType": "Collected",
        "originSource": "Vendor",
        "vlmTarget": true
      },
      {
        "name": "LBSTRESC",
        "dataElementConceptId": "C70856",
        "isNonStandard": false,
        "role": "Qualifier",
        "dataType": "text",
        "length": 20,
        "relationship": {
          "subject": "LBSTRESC",
          "linkingPhrase": "is the result of the test in",
          "predicateTerm": "IS_RESULT_OF",
          "object": "LBTESTCD"
        },
        "mandatoryVariable": true,
        "mandatoryValue": false,
        "originType": "Collected",
        "originSource": "Vendor",
        "vlmTarget": true
      },
      {
        "name": "LBLOINC",
        "isNonStandard": false,
        "assignedTerm": {
          "value": "25428-4"
        },
        "role": "Qualifier",
        "relationship": {
          "subject": "LBLOINC",
          "linkingPhrase": "identifies an observation described by",
          "predicateTerm": "IDENTIFIES_OBSERVATION",
          "object": "LBTESTCD"
        },
        "mandatoryVariable": false,
        "mandatoryValue": false
      },
      {
        "name": "LBSPEC",
        "dataElementConceptId": "C70713",
        "isNonStandard": false,
        "codelist": {
          "conceptId": "C78734",
          "submissionValue": "SPECTYPE",
          "href": "https://evsexplore.semantics.cancer.gov/evsexplore/concept/ncit/C78734"
        },
        "assignedTerm": {
          "conceptId": "C13283",
          "value": "URINE"
        },
        "role": "Qualifier",
        "relationship": {
          "subject": "LBSPEC",
          "linkingPhrase": "is the specimen tested in",
          "predicateTerm": "IS_SPECIMEN_TESTED_IN",
          "object": "LBTESTCD"
        },
        "mandatoryVariable": true,
        "mandatoryValue": false,
        "comparator": "EQ"
      },
      {
        "name": "LBMETHOD",
        "dataElementConceptId": "C82535",
        "isNonStandard": false,
        "codelist": {
          "conceptId": "C85492",
          "submissionValue": "METHOD",
          "href": "https://evsexplore.semantics.cancer.gov/evsexplore/concept/ncit/C85492"
        },
        "assignedTerm": {
          "conceptId": "C50322",
          "value": "TEST STRIP"
        },
        "role": "Qualifier",
        "relationship": {
          "subject": "LBMETHOD",
          "linkingPhrase": "is the method for the test in",
          "predicateTerm": "SPECIFIES",
          "object": "LBTESTCD"
        },
        "mandatoryVariable": true,
        "mandatoryValue": false,
        "comparator": "EQ"
      },
      {
        "name": "LBFAST",
        "dataElementConceptId": "C93566",
        "isNonStandard": false,
        "codelist": {
          "conceptId": "C66742",
          "submissionValue": "NY",
          "href": "https://evsexplore.semantics.cancer.gov/evsexplore/concept/ncit/C66742"
        },
        "subsetCodelist": "NY_NY",
        "valueList": [
          "N",
          "Y"
        ],
        "role": "Qualifier",
        "relationship": {
          "subject": "LBFAST",
          "linkingPhrase": "is the subject's fasting status during the performance of the test in",
          "predicateTerm": "IS_SUBJECT_STATE_FOR",
          "object": "LBTESTCD"
        },
        "mandatoryVariable": false,
        "mandatoryValue": false
      },
      {
        "name": "LBDTC",
        "dataElementConceptId": "C82515",
        "isNonStandard": false,
        "role": "Timing",
        "relationship": {
          "subject": "LBDTC",
          "linkingPhrase": "is the date of occurrence for",
          "predicateTerm": "IS_TIMING_FOR",
          "object": "LBTESTCD"
        },
        "mandatoryVariable": true,
        "mandatoryValue": false
      }
    ]
  },
  {
    "_links": {
      "parentBiomedicalConcept": {
        "href": "/mdr/bc/biomedicalconcepts/C64848",
        "title": "Hemoglobin Measurement",
        "type": "Biomedical Concept"
      },
      "parentPackage": {
        "href": "/mdr/specializations/sdtm/packages/2025-12-16/datasetspecializations",
        "title": "SDTM Dataset Specialization Package Effective 2025-12-16",
        "type": "SDTM Dataset Specialization Package"
      },
      "self": {
        "href": "/mdr/specializations/sdtm/datasetspecializations/HGBBLD",
        "title": "Hemoglobin Concentration in Blood",
        "type": "SDTM Dataset Specialization"
      }
    },
    "datasetSpecializationId": "HGBBLD",
    "domain": "LB",
    "shortName": "Hemoglobin Concentration in Blood",
    "source": "LB.LBTESTCD",
    "sdtmigStartVersion": "3-2",
    "sdtmigEndVersion": "",
    "variables": [
      {
        "name": "LBTESTCD",
        "isNonStandard": false,
        "codelist": {
          "conceptId": "C65047",
          "submissionValue": "LBTESTCD",
          "href": "https://evsexplore.semantics.cancer.gov/evsexplore/concept/ncit/C65047"
        },
        "assignedTerm": {
          "conceptId": "C64848",
          "value": "HGB"
        },
        "role": "Topic",
        "relationship": {
          "subject": "LBTESTCD",
          "linkingPhrase": "is the code for the value in",
          "predicateTerm": "IS_DECODED_BY",
          "object": "LBTEST"
        },
        "mandatoryVariable": true,
        "mandatoryValue": true,
        "comparator": "EQ"
      },
      {
        "name": "LBTEST",
        "isNonStandard": false,
        "codelist": {
          "conceptId": "C67154",
          "submissionValue": "LBTEST",
          "href": "https://evsexplore.semantics.cancer.gov/evsexplore/concept/ncit/C67154"
        },
        "assignedTerm": {
          "conceptId": "C64848",
          "value": "Hemoglobin"
        },
        "role": "Qualifier",
        "relationship": {
          "subject": "LBTEST",
          "linkingPhrase": "decodes the value in",
          "predicateTerm": "DECODES",
          "object": "LBTESTCD"
        },
        "mandatoryVariable": true,
        "mandatoryValue": true
      },
      {
        "name": "LBCAT",
        "isNonStandard": false,
        "assignedTerm": {
          "value": "HEMATOLOGY"
        },
        "role": "Qualifier",
        "relationship": {
          "subject": "LBCAT",
          "linkingPhrase": "groups values in",
          "predicateTerm": "GROUPS",
          "object": "LBTESTCD"
        },
        "mandatoryVariable": true,
        "mandatoryValue": false
      },
      {
        "name": "LBORRES",
        "dataElementConceptId": "C70856",
        "isNonStandard": false,
        "role": "Qualifier",
        "dataType": "float",
        "length": 12,
        "format": "12.4",
        "significantDigits": 4,
        "relationship": {
          "subject": "LBORRES",
          "linkingPhrase": "is the result of the test in",
          "predicateTerm": "IS_RESULT_OF",
          "object": "LBTESTCD"
        },
        "mandatoryVariable": true,
        "mandatoryValue": false,
        "originType": "Collected",
        "originSource": "Vendor",
        "vlmTarget": true
      },
      {
        "name": "LBORRESU",
        "dataElementConceptId": "C64571",
        "isNonStandard": false,
        "codelist": {
          "conceptId": "C71620",
          "submissionValue": "UNIT",
          "href": "https://evsexplore.semantics.cancer.gov/evsexplore/concept/ncit/C71620"
        },
        "valueList": [
          "g/dL",
          "g/L",
          "mg/dL"
        ],
        "role": "Qualifier",
        "relationship": {
          "subject": "LBORRESU",
          "linkingPhrase": "is the unit for the value in",
          "predicateTerm": "IS_UNIT_FOR",
          "object": "LBORRES"
        },
        "mandatoryVariable": true,
        "mandatoryValue": false,
        "vlmTarget": true
      },
      {
        "name": "LBSTRESC",
        "dataElementConceptId": "C70856",
        "isNonStandard": false,
        "role": "Qualifier",
        "dataType": "float",
        "length": 12,
        "format": "12.4",
        "significantDigits": 4,
        "relationship": {
          "subject": "LBSTRESC",
          "linkingPhrase": "is the result of the test in",
          "predicateTerm": "IS_RESULT_OF",
          "object": "LBTESTCD"
        },
        "mandatoryVariable": true,
        "mandatoryValue": false,
        "originType": "Collected",
        "originSource": "Vendor",
        "vlmTarget": true
      },
      {
        "name": "LBSTRESN",
        "dataElementConceptId": "C70856",
        "isNonStandard": false,
        "role": "Qualifier",
        "dataType": "float",
        "length": 12,
        "format": "12.4",
        "significantDigits": 4,
        "relationship": {
          "subject": "LBSTRESN",
          "linkingPhrase": "is the result of the test in",
          "predicateTerm": "IS_RESULT_OF",
          "object": "LBTESTCD"
        },
        "mandatoryVariable": true,
        "mandatoryValue": false,
        "originType": "Collected",
        "originSource": "Vendor",
        "vlmTarget": true
      },
      {
        "name": "LBSTRESU",
        "dataElementConceptId": "C64571",
        "isNonStandard": false,
        "codelist": {
          "conceptId": "C71620",
          "submissionValue": "UNIT",
          "href": "https://evsexplore.semantics.cancer.gov/evsexplore/concept/ncit/C71620"
        },
        "assignedTerm": {
          "conceptId": "C42576",
          "value": "g/L"
        },
        "role": "Qualifier",
        "relationship": {
          "subject": "LBSTRESU",
          "linkingPhrase": "is the unit for the value in",
          "predicateTerm": "IS_UNIT_FOR",
          "object": "LBSTRESN"
        },
        "mandatoryVariable": true,
        "mandatoryValue": false,
        "vlmTarget": true
      },
      {
        "name": "LBLOINC",
        "isNonStandard": false,
        "valueList": [
          "718-7",
          "59260-0"
        ],
        "role": "Qualifier",
        "relationship": {
          "subject": "LBLOINC",
          "linkingPhrase": "identifies an observation described by",
          "predicateTerm": "IDENTIFIES_OBSERVATION",
          "object": "LBTESTCD"
        },
        "mandatoryVariable": false,
        "mandatoryValue": false
      },
      {
        "name": "LBSPEC",
        "dataElementConceptId": "C70713",
        "isNonStandard": false,
        "codelist": {
          "conceptId": "C78734",
          "submissionValue": "SPECTYPE",
          "href": "https://evsexplore.semantics.cancer.gov/evsexplore/concept/ncit/C78734"
        },
        "assignedTerm": {
          "conceptId": "C12434",
          "value": "BLOOD"
        },
        "role": "Qualifier",
        "relationship": {
          "subject": "LBSPEC",
          "linkingPhrase": "is the specimen tested in",
          "predicateTerm": "IS_SPECIMEN_TESTED_IN",
          "object": "LBTESTCD"
        },
        "mandatoryVariable": true,
        "mandatoryValue": false,
        "comparator": "EQ"
      },
      {
        "name": "LBFAST",
        "dataElementConceptId": "C93566",
        "isNonStandard": false,
        "codelist": {
          "conceptId": "C66742",
          "submissionValue": "NY",
          "href": "https://evsexplore.semantics.cancer.gov/evsexplore/concept/ncit/C66742"
        },
        "subsetCodelist": "NY_NY",
        "valueList": [
          "N",
          "Y"
        ],
        "role": "Qualifier",
        "relationship": {
          "subject": "LBFAST",
          "linkingPhrase": "is the subject's fasting status during the performance of the test in",
          "predicateTerm": "IS_SUBJECT_STATE_FOR",
          "object": "LBTESTCD"
        },
        "mandatoryVariable": false,
        "mandatoryValue": false
      },
      {
        "name": "LBDTC",
        "dataElementConceptId": "C82515",
        "isNonStandard": false,
        "role": "Timing",
        "relationship": {
          "subject": "LBDTC",
          "linkingPhrase": "is the date of occurrence for",
          "predicateTerm": "IS_TIMING_FOR",
          "object": "LBTESTCD"
        },
        "mandatoryVariable": true,
        "mandatoryValue": false
      }
    ]
  },
  {
    "_links": {
      "parentBiomedicalConcept": {
        "href": "/mdr/bc/biomedicalconcepts/C105585",
        "title": "Glucose Measurement",
        "type": "Biomedical Concept"
      },
      "parentPackage": {
        "href": "/mdr/specializations/sdtm/packages/2025-12-16/datasetspecializations",
        "title": "SDTM Dataset Specialization Package Effective 2025-12-16",
        "type": "SDTM Dataset Specialization Package"
      },
      "self": {
        "href": "/mdr/specializations/sdtm/datasetspecializations/GLUCURIN",
        "title": "Glucose Concentration in Urine",
        "type": "SDTM Dataset Specialization"
      }
    },
    "datasetSpecializationId": "GLUCURIN",
    "domain": "LB",
    "shortName": "Glucose Concentration in Urine",
    "source": "LB.LBTESTCD",
    "sdtmigStartVersion": "3-2",
    "sdtmigEndVersion": "",
    "variables": [
      {
        "name": "LBTESTCD",
        "isNonStandard": false,
        "codelist": {
          "conceptId": "C65047",
          "submissionValue": "LBTESTCD",
          "href": "https://evsexplore.semantics.cancer.gov/evsexplore/concept/ncit/C65047"
        },
        "assignedTerm": {
          "conceptId": "C105585",
          "value": "GLUC"
        },
        "role": "Topic",
        "relationship": {
          "subject": "LBTESTCD",
          "linkingPhrase": "is the code for the value in",
          "predicateTerm": "IS_DECODED_BY",
          "object": "LBTEST"
        },
        "mandatoryVariable": true,
        "mandatoryValue": true,
        "comparator": "EQ"
      },
      {
        "name": "LBTEST",
        "isNonStandard": false,
        "codelist": {
          "conceptId": "C67154",
          "submissionValue": "LBTEST",
          "href": "https://evsexplore.semantics.cancer.gov/evsexplore/concept/ncit/C67154"
        },
        "assignedTerm": {
          "conceptId": "C105585",
          "value": "Glucose"
        },
        "role": "Qualifier",
        "relationship": {
          "subject": "LBTEST",
          "linkingPhrase": "decodes the value in",
          "predicateTerm": "DECODES",
          "object": "LBTESTCD"
        },
        "mandatoryVariable": true,
        "mandatoryValue": true
      },
      {
        "name": "LBCAT",
        "isNonStandard": false,
        "assignedTerm": {
          "value": "CHEMISTRY"
        },
        "role": "Qualifier",
        "relationship": {
          "subject": "LBCAT",
          "linkingPhrase": "groups values in",
          "predicateTerm": "GROUPS",
          "object": "LBTESTCD"
        },
        "mandatoryVariable": true,
        "mandatoryValue": false
      },
      {
        "name": "LBORRES",
        "dataElementConceptId": "C70856",
        "isNonStandard": false,
        "role": "Qualifier",
        "relationship": {
          "subject": "LBORRES",
          "linkingPhrase": "is the result of the test in",
          "predicateTerm": "IS_RESULT_OF",
          "object": "LBTESTCD"
        },
        "mandatoryVariable": true,
        "mandatoryValue": false,
        "vlmTarget": true
      },
      {
        "name": "LBORRESU",
        "dataElementConceptId": "C48207",
        "isNonStandard": false,
        "codelist": {
          "conceptId": "C71620",
          "submissionValue": "UNIT",
          "href": "https://evsexplore.semantics.cancer.gov/evsexplore/concept/ncit/C71620"
        },
        "valueList": [
          "mg/dL",
          "mmol/L",
          "umol/L"
        ],
        "role": "Qualifier",
        "dataType": "float",
        "length": 12,
        "format": "12.4",
        "significantDigits": 4,
        "relationship": {
          "subject": "LBORRESU",
          "linkingPhrase": "is the unit for the value in",
          "predicateTerm": "IS_UNIT_FOR",
          "object": "LBORRES"
        },
        "mandatoryVariable": true,
        "mandatoryValue": false,
        "originType": "Collected",
        "originSource": "Vendor",
        "vlmTarget": true
      },
      {
        "name": "LBSTRESC",
        "dataElementConceptId": "C70856",
        "isNonStandard": false,
        "role": "Qualifier",
        "relationship": {
          "subject": "LBSTRESC",
          "linkingPhrase": "is the result of the test in",
          "predicateTerm": "IS_RESULT_OF",
          "object": "LBTESTCD"
        },
        "mandatoryVariable": true,
        "mandatoryValue": false,
        "vlmTarget": true
      },
      {
        "name": "LBSTRESN",
        "dataElementConceptId": "C70856",
        "isNonStandard": false,
        "role": "Qualifier",
        "dataType": "float",
        "length": 12,
        "format": "12.4",
        "significantDigits": 4,
        "relationship": {
          "subject": "LBSTRESN",
          "linkingPhrase": "is the result of the test in",
          "predicateTerm": "IS_RESULT_OF",
          "object": "LBTESTCD"
        },
        "mandatoryVariable": true,
        "mandatoryValue": false,
        "originType": "Collected",
        "originSource": "Vendor",
        "vlmTarget": true
      },
      {
        "name": "LBSTRESU",
        "dataElementConceptId": "C48207",
        "isNonStandard": false,
        "codelist": {
          "conceptId": "C71620",
          "submissionValue": "UNIT",
          "href": "https://evsexplore.semantics.cancer.gov/evsexplore/concept/ncit/C71620"
        },
        "assignedTerm": {
          "conceptId": "C64387",
          "value": "mmol/L"
        },
        "role": "Qualifier",
        "dataType": "float",
        "length": 12,
        "format": "12.4",
        "significantDigits": 4,
        "relationship": {
          "subject": "LBSTRESU",
          "linkingPhrase": "is the unit for the value in",
          "predicateTerm": "IS_UNIT_FOR",
          "object": "LBSTRESN"
        },
        "mandatoryVariable": true,
        "mandatoryValue": false,
        "originType": "Collected",
        "originSource": "Vendor",
        "vlmTarget": true
      },
      {
        "name": "LBLOINC",
        "isNonStandard": false,
        "valueList": [
          "15076-3",
          "2350-7"
        ],
        "role": "Qualifier",
        "relationship": {
          "subject": "LBLOINC",
          "linkingPhrase": "identifies an observation described by",
          "predicateTerm": "IDENTIFIES_OBSERVATION",
          "object": "LBTESTCD"
        },
        "mandatoryVariable": false,
        "mandatoryValue": false
      },
      {
        "name": "LBSPEC",
        "dataElementConceptId": "C70713",
        "isNonStandard": false,
        "codelist": {
          "conceptId": "C78734",
          "submissionValue": "SPECTYPE",
          "href": "https://evsexplore.semantics.cancer.gov/evsexplore/concept/ncit/C78734"
        },
        "assignedTerm": {
          "conceptId": "C13283",
          "value": "URINE"
        },
        "role": "Qualifier",
        "relationship": {
          "subject": "LBSPEC",
          "linkingPhrase": "is the specimen tested in",
          "predicateTerm": "IS_SPECIMEN_TESTED_IN",
          "object": "LBTESTCD"
        },
        "mandatoryVariable": true,
        "mandatoryValue": false,
        "comparator": "EQ"
      },
      {
        "name": "LBFAST",
        "dataElementConceptId": "C93566",
        "isNonStandard": false,
        "codelist": {
          "conceptId": "C66742",
          "submissionValue": "NY",
          "href": "https://evsexplore.semantics.cancer.gov/evsexplore/concept/ncit/C66742"
        },
        "subsetCodelist": "NY_NY",
        "valueList": [
          "N",
          "Y"
        ],
        "role": "Qualifier",
        "relationship": {
          "subject": "LBFAST",
          "linkingPhrase": "is the subject's fasting status during the performance of the test in",
          "predicateTerm": "IS_SUBJECT_STATE_FOR",
          "object": "LBTESTCD"
        },
        "mandatoryVariable": false,
        "mandatoryValue": false
      },
      {
        "name": "LBDTC",
        "dataElementConceptId": "C82515",
        "isNonStandard": false,
        "role": "Timing",
        "relationship": {
          "subject": "LBDTC",
          "linkingPhrase": "is the date of occurrence for",
          "predicateTerm": "IS_TIMING_FOR",
          "object": "LBTESTCD"
        },
        "mandatoryVariable": true,
        "mandatoryValue": false
      }
    ]
  },
  {
    "_links": {
      "parentBiomedicalConcept": {
        "href": "/mdr/bc/biomedicalconcepts/C64853",
        "title": "Potassium Measurement",
        "type": "Biomedical Concept"
      },
      "parentPackage": {
        "href": "/mdr/specializations/sdtm/packages/2025-12-16/datasetspecializations",
        "title": "SDTM Dataset Specialization Package Effective 2025-12-16",
        "type": "SDTM Dataset Specialization Package"
      },
      "self": {
        "href": "/mdr/specializations/sdtm/datasetspecializations/KSERPL",
        "title": "Potassium Concentration in Serum or Plasma",
        "type": "SDTM Dataset Specialization"
      }
    },
    "datasetSpecializationId": "KSERPL",
    "domain": "LB",
    "shortName": "Potassium Concentration in Serum or Plasma",
    "source": "LB.LBTESTCD",
    "sdtmigStartVersion": "3-2",
    "sdtmigEndVersion": "",
    "variables": [
      {
        "name": "LBTESTCD",
        "isNonStandard": false,
        "codelist": {
          "conceptId": "C65047",
          "submissionValue": "LBTESTCD",
          "href": "https://evsexplore.semantics.cancer.gov/evsexplore/concept/ncit/C65047"
        },
        "assignedTerm": {
          "conceptId": "C64853",
          "value": "K"
        },
        "role": "Topic",
        "relationship": {
          "subject": "LBTESTCD",
          "linkingPhrase": "is the code for the value in",
          "predicateTerm": "IS_DECODED_BY",
          "object": "LBTEST"
        },
        "mandatoryVariable": true,
        "mandatoryValue": true,
        "comparator": "EQ"
      },
      {
        "name": "LBTEST",
        "isNonStandard": false,
        "codelist": {
          "conceptId": "C67154",
          "submissionValue": "LBTEST",
          "href": "https://evsexplore.semantics.cancer.gov/evsexplore/concept/ncit/C67154"
        },
        "assignedTerm": {
          "conceptId": "C64853",
          "value": "Potassium"
        },
        "role": "Qualifier",
        "relationship": {
          "subject": "LBTEST",
          "linkingPhrase": "decodes the value in",
          "predicateTerm": "DECODES",
          "object": "LBTESTCD"
        },
        "mandatoryVariable": true,
        "mandatoryValue": true
      },
      {
        "name": "LBCAT",
        "isNonStandard": false,
        "assignedTerm": {
          "value": "CHEMISTRY"
        },
        "role": "Qualifier",
        "relationship": {
          "subject": "LBCAT",
          "linkingPhrase": "groups values in",
          "predicateTerm": "GROUPS",
          "object": "LBTESTCD"
        },
        "mandatoryVariable": true,
        "mandatoryValue": false
      },
      {
        "name": "LBORRES",
        "dataElementConceptId": "C70856",
        "isNonStandard": false,
        "role": "Qualifier",
        "dataType": "float",
        "length": 12,
        "format": "12.4",
        "significantDigits": 4,
        "relationship": {
          "subject": "LBORRES",
          "linkingPhrase": "is the result of the test in",
          "predicateTerm": "IS_RESULT_OF",
          "object": "LBTESTCD"
        },
        "mandatoryVariable": true,
        "mandatoryValue": false,
        "originType": "Collected",
        "originSource": "Vendor",
        "vlmTarget": true
      },
      {
        "name": "LBORRESU",
        "dataElementConceptId": "C64567",
        "isNonStandard": false,
        "codelist": {
          "conceptId": "C71620",
          "submissionValue": "UNIT",
          "href": "https://evsexplore.semantics.cancer.gov/evsexplore/concept/ncit/C71620"
        },
        "valueList": [
          "mEq/L",
          "mEq/dL",
          "mmol/L"
        ],
        "role": "Qualifier",
        "relationship": {
          "subject": "LBORRESU",
          "linkingPhrase": "is the unit for the value in",
          "predicateTerm": "IS_UNIT_FOR",
          "object": "LBORRES"
        },
        "mandatoryVariable": true,
        "mandatoryValue": false,
        "vlmTarget": true
      },
      {
        "name": "LBSTRESC",
        "dataElementConceptId": "C70856",
        "isNonStandard": false,
        "role": "Qualifier",
        "dataType": "float",
        "length": 12,
        "format": "12.4",
        "significantDigits": 4,
        "relationship": {
          "subject": "LBSTRESC",
          "linkingPhrase": "is the result of the test in",
          "predicateTerm": "IS_RESULT_OF",
          "object": "LBTESTCD"
        },
        "mandatoryVariable": true,
        "mandatoryValue": false,
        "originType": "Collected",
        "originSource": "Vendor",
        "vlmTarget": true
      },
      {
        "name": "LBSTRESN",
        "dataElementConceptId": "C70856",
        "isNonStandard": false,
        "role": "Qualifier",
        "dataType": "float",
        "length": 12,
        "format": "12.4",
        "significantDigits": 4,
        "relationship": {
          "subject": "LBSTRESN",
          "linkingPhrase": "is the result of the test in",
          "predicateTerm": "IS_RESULT_OF",
          "object": "LBTESTCD"
        },
        "mandatoryVariable": true,
        "mandatoryValue": false,
        "originType": "Collected",
        "originSource": "Vendor",
        "vlmTarget": true
      },
      {
        "name": "LBSTRESU",
        "dataElementConceptId": "C64567",
        "isNonStandard": false,
        "codelist": {
          "conceptId": "C71620",
          "submissionValue": "UNIT",
          "href": "https://evsexplore.semantics.cancer.gov/evsexplore/concept/ncit/C71620"
        },
        "assignedTerm": {
          "conceptId": "C64387",
          "value": "mmol/L"
        },
        "role": "Qualifier",
        "relationship": {
          "subject": "LBSTRESU",
          "linkingPhrase": "is the unit for the value in",
          "predicateTerm": "IS_UNIT_FOR",
          "object": "LBSTRESN"
        },
        "mandatoryVariable": true,
        "mandatoryValue": false,
        "originType": "Collected",
        "originSource": "Vendor",
        "vlmTarget": true
      },
      {
        "name": "LBLOINC",
        "isNonStandard": false,
        "assignedTerm": {
          "value": "2823-3"
        },
        "role": "Qualifier",
        "relationship": {
          "subject": "LBLOINC",
          "linkingPhrase": "identifies an observation described by",
          "predicateTerm": "IDENTIFIES_OBSERVATION",
          "object": "LBTESTCD"
        },
        "mandatoryVariable": false,
        "mandatoryValue": false
      },
      {
        "name": "LBSPEC",
        "dataElementConceptId": "C70713",
        "isNonStandard": false,
        "codelist": {
          "conceptId": "C78734",
          "submissionValue": "SPECTYPE",
          "href": "https://evsexplore.semantics.cancer.gov/evsexplore/concept/ncit/C78734"
        },
        "assignedTerm": {
          "conceptId": "C105706",
          "value": "SERUM OR PLASMA"
        },
        "role": "Qualifier",
        "relationship": {
          "subject": "LBSPEC",
          "linkingPhrase": "is the specimen tested in",
          "predicateTerm": "IS_SPECIMEN_TESTED_IN",
          "object": "LBTESTCD"
        },
        "mandatoryVariable": true,
        "mandatoryValue": false
      },
      {
        "name": "LBFAST",
        "dataElementConceptId": "C93566",
        "isNonStandard": false,
        "codelist": {
          "conceptId": "C66742",
          "submissionValue": "NY",
          "href": "https://evsexplore.semantics.cancer.gov/evsexplore/concept/ncit/C66742"
        },
        "subsetCodelist": "NY_NY",
        "valueList": [
          "N",
          "Y"
        ],
        "role": "Qualifier",
        "relationship": {
          "subject": "LBFAST",
          "linkingPhrase": "is the subject's fasting status during the performance of the test in",
          "predicateTerm": "IS_SUBJECT_STATE_FOR",
          "object": "LBTESTCD"
        },
        "mandatoryVariable": false,
        "mandatoryValue": false
      },
      {
        "name": "LBDTC",
        "dataElementConceptId": "C82515",
        "isNonStandard": false,
        "role": "Timing",
        "relationship": {
          "subject": "LBDTC",
          "linkingPhrase": "is the date of occurrence for",
          "predicateTerm": "IS_TIMING_FOR",
          "object": "LBTESTCD"
        },
        "mandatoryVariable": true,
        "mandatoryValue": false
      }
    ]
  },
  {
    "_links": {
      "parentBiomedicalConcept": {
        "href": "/mdr/bc/biomedicalconcepts/C64848",
        "title": "Hemoglobin Measurement",
        "type": "Biomedical Concept"
      },
      "parentPackage": {
        "href": "/mdr/specializations/sdtm/packages/2025-12-16/datasetspecializations",
        "title": "SDTM Dataset Specialization Package Effective 2025-12-16",
        "type": "SDTM Dataset Specialization Package"
      },
      "self": {
        "href": "/mdr/specializations/sdtm/datasetspecializations/HGBBLDDIP",
        "title": "Hemoglobin in Blood by Dipstick",
        "type": "SDTM Dataset Specialization"
      }
    },
    "datasetSpecializationId": "HGBBLDDIP",
    "domain": "LB",
    "shortName": "Hemoglobin in Blood by Dipstick",
    "source": "LB.LBTESTCD",
    "sdtmigStartVersion": "3-2",
    "sdtmigEndVersion": "",
    "variables": [
      {
        "name": "LBTESTCD",
        "isNonStandard": false,
        "codelist": {
          "conceptId": "C65047",
          "submissionValue": "LBTESTCD",
          "href": "https://evsexplore.semantics.cancer.gov/evsexplore/concept/ncit/C65047"
        },
        "assignedTerm": {
          "conceptId": "C64848",
          "value": "HGB"
        },
        "role": "Topic",
        "relationship": {
          "subject": "LBTESTCD",
          "linkingPhrase": "is the code for the value in",
          "predicateTerm": "IS_DECODED_BY",
          "object": "LBTEST"
        },
        "mandatoryVariable": true,
        "mandatoryValue": true,
        "comparator": "EQ"
      },
      {
        "name": "LBTEST",
        "isNonStandard": false,
        "codelist": {
          "conceptId": "C67154",
          "submissionValue": "LBTEST",
          "href": "https://evsexplore.semantics.cancer.gov/evsexplore/concept/ncit/C67154"
        },
        "assignedTerm": {
          "conceptId": "C64848",
          "value": "Hemoglobin"
        },
        "role": "Qualifier",
        "relationship": {
          "subject": "LBTEST",
          "linkingPhrase": "decodes the value in",
          "predicateTerm": "DECODES",
          "object": "LBTESTCD"
        },
        "mandatoryVariable": true,
        "mandatoryValue": true
      },
      {
        "name": "LBCAT",
        "isNonStandard": false,
        "assignedTerm": {
          "value": "HEMATOLOGY"
        },
        "role": "Qualifier",
        "relationship": {
          "subject": "LBCAT",
          "linkingPhrase": "groups values in",
          "predicateTerm": "GROUPS",
          "object": "LBTESTCD"
        },
        "mandatoryVariable": true,
        "mandatoryValue": false
      },
      {
        "name": "LBORRES",
        "dataElementConceptId": "C70856",
        "isNonStandard": false,
        "role": "Qualifier",
        "dataType": "float",
        "length": 12,
        "format": "12.4",
        "significantDigits": 4,
        "relationship": {
          "subject": "LBORRES",
          "linkingPhrase": "is the result of the test in",
          "predicateTerm": "IS_RESULT_OF",
          "object": "LBTESTCD"
        },
        "mandatoryVariable": true,
        "mandatoryValue": false,
        "originType": "Collected",
        "originSource": "Vendor",
        "vlmTarget": true
      },
      {
        "name": "LBORRESU",
        "dataElementConceptId": "C64571",
        "isNonStandard": false,
        "codelist": {
          "conceptId": "C71620",
          "submissionValue": "UNIT",
          "href": "https://evsexplore.semantics.cancer.gov/evsexplore/concept/ncit/C71620"
        },
        "valueList": [
          "g/dL",
          "g/L",
          "mg/dL"
        ],
        "role": "Qualifier",
        "relationship": {
          "subject": "LBORRESU",
          "linkingPhrase": "is the unit for the value in",
          "predicateTerm": "IS_UNIT_FOR",
          "object": "LBORRES"
        },
        "mandatoryVariable": true,
        "mandatoryValue": false,
        "vlmTarget": true
      },
      {
        "name": "LBSTRESC",
        "dataElementConceptId": "C70856",
        "isNonStandard": false,
        "role": "Qualifier",
        "dataType": "float",
        "length": 12,
        "format": "12.4",
        "significantDigits": 4,
        "relationship": {
          "subject": "LBSTRESC",
          "linkingPhrase": "is the result of the test in",
          "predicateTerm": "IS_RESULT_OF",
          "object": "LBTESTCD"
        },
        "mandatoryVariable": true,
        "mandatoryValue": false,
        "originType": "Collected",
        "originSource": "Vendor",
        "vlmTarget": true
      },
      {
        "name": "LBSTRESN",
        "dataElementConceptId": "C70856",
        "isNonStandard": false,
        "role": "Qualifier",
        "dataType": "float",
        "length": 12,
        "format": "12.4",
        "significantDigits": 4,
        "relationship": {
          "subject": "LBSTRESN",
          "linkingPhrase": "is the result of the test in",
          "predicateTerm": "IS_RESULT_OF",
          "object": "LBTESTCD"
        },
        "mandatoryVariable": true,
        "mandatoryValue": false,
        "originType": "Collected",
        "originSource": "Vendor",
        "vlmTarget": true
      },
      {
        "name": "LBSTRESU",
        "dataElementConceptId": "C64571",
        "isNonStandard": false,
        "codelist": {
          "conceptId": "C71620",
          "submissionValue": "UNIT",
          "href": "https://evsexplore.semantics.cancer.gov/evsexplore/concept/ncit/C71620"
        },
        "assignedTerm": {
          "conceptId": "C42576",
          "value": "g/L"
        },
        "role": "Qualifier",
        "relationship": {
          "subject": "LBSTRESU",
          "linkingPhrase": "is the unit for the value in",
          "predicateTerm": "IS_UNIT_FOR",
          "object": "LBSTRESN"
        },
        "mandatoryVariable": true,
        "mandatoryValue": false,
        "vlmTarget": true
      },
      {
        "name": "LBLOINC",
        "isNonStandard": false,
        "assignedTerm": {
          "value": "49137-3"
        },
        "role": "Qualifier",
        "relationship": {
          "subject": "LBLOINC",
          "linkingPhrase": "identifies an observation described by",
          "predicateTerm": "IDENTIFIES_OBSERVATION",
          "object": "LBTESTCD"
        },
        "mandatoryVariable": false,
        "mandatoryValue": false
      },
      {
        "name": "LBSPEC",
        "dataElementConceptId": "C70713",
        "isNonStandard": false,
        "codelist": {
          "conceptId": "C78734",
          "submissionValue": "SPECTYPE",
          "href": "https://evsexplore.semantics.cancer.gov/evsexplore/concept/ncit/C78734"
        },
        "assignedTerm": {
          "conceptId": "C12434",
          "value": "BLOOD"
        },
        "role": "Qualifier",
        "relationship": {
          "subject": "LBSPEC",
          "linkingPhrase": "is the specimen tested in",
          "predicateTerm": "IS_SPECIMEN_TESTED_IN",
          "object": "LBTESTCD"
        },
        "mandatoryVariable": true,
        "mandatoryValue": false,
        "comparator": "EQ"
      },
      {
        "name": "LBMETHOD",
        "dataElementConceptId": "C82535",
        "isNonStandard": false,
        "codelist": {
          "conceptId": "C85492",
          "submissionValue": "METHOD",
          "href": "https://evsexplore.semantics.cancer.gov/evsexplore/concept/ncit/C85492"
        },
        "assignedTerm": {
          "conceptId": "C178142",
          "value": "DIPSTICK MEASUREMENT METHOD"
        },
        "role": "Qualifier",
        "relationship": {
          "subject": "LBMETHOD",
          "linkingPhrase": "is the method for the test in",
          "predicateTerm": "SPECIFIES",
          "object": "LBTESTCD"
        },
        "mandatoryVariable": true,
        "mandatoryValue": false,
        "comparator": "EQ"
      },
      {
        "name": "LBFAST",
        "dataElementConceptId": "C93566",
        "isNonStandard": false,
        "codelist": {
          "conceptId": "C66742",
          "submissionValue": "NY",
          "href": "https://evsexplore.semantics.cancer.gov/evsexplore/concept/ncit/C66742"
        },
        "subsetCodelist": "NY_NY",
        "valueList": [
          "N",
          "Y"
        ],
        "role": "Qualifier",
        "relationship": {
          "subject": "LBFAST",
          "linkingPhrase": "is the subject's fasting status during the performance of the test in",
          "predicateTerm": "IS_SUBJECT_STATE_FOR",
          "object": "LBTESTCD"
        },
        "mandatoryVariable": false,
        "mandatoryValue": false
      },
      {
        "name": "LBDTC",
        "dataElementConceptId": "C82515",
        "isNonStandard": false,
        "role": "Timing",
        "relationship": {
          "subject": "LBDTC",
          "linkingPhrase": "is the date of occurrence for",
          "predicateTerm": "IS_TIMING_FOR",
          "object": "LBTESTCD"
        },
        "mandatoryVariable": true,
        "mandatoryValue": false
      }
    ]
  },
  {
    "_links": {
      "parentBiomedicalConcept": {
        "href": "/mdr/bc/biomedicalconcepts/C64853",
        "title": "Potassium Measurement",
        "type": "Biomedical Concept"
      },
      "parentPackage": {
        "href": "/mdr/specializations/sdtm/packages/2025-12-16/datasetspecializations",
        "title": "SDTM Dataset Specialization Package Effective 2025-12-16",
        "type": "SDTM Dataset Specialization Package"
      },
      "self": {
        "href": "/mdr/specializations/sdtm/datasetspecializations/KBLD",
        "title": "Potassium Concentration in Blood",
        "type": "SDTM Dataset Specialization"
      }
    },
    "datasetSpecializationId": "KBLD",
    "domain": "LB",
    "shortName": "Potassium Concentration in Blood",
    "source": "LB.LBTESTCD",
    "sdtmigStartVersion": "3-2",
    "sdtmigEndVersion": "",
    "variables": [
      {
        "name": "LBTESTCD",
        "isNonStandard": false,
        "codelist": {
          "conceptId": "C65047",
          "submissionValue": "LBTESTCD",
          "href": "https://evsexplore.semantics.cancer.gov/evsexplore/concept/ncit/C65047"
        },
        "assignedTerm": {
          "conceptId": "C64853",
          "value": "K"
        },
        "role": "Topic",
        "relationship": {
          "subject": "LBTESTCD",
          "linkingPhrase": "is the code for the value in",
          "predicateTerm": "IS_DECODED_BY",
          "object": "LBTEST"
        },
        "mandatoryVariable": true,
        "mandatoryValue": true,
        "comparator": "EQ"
      },
      {
        "name": "LBTEST",
        "isNonStandard": false,
        "codelist": {
          "conceptId": "C67154",
          "submissionValue": "LBTEST",
          "href": "https://evsexplore.semantics.cancer.gov/evsexplore/concept/ncit/C67154"
        },
        "assignedTerm": {
          "conceptId": "C64853",
          "value": "Potassium"
        },
        "role": "Qualifier",
        "relationship": {
          "subject": "LBTEST",
          "linkingPhrase": "decodes the value in",
          "predicateTerm": "DECODES",
          "object": "LBTESTCD"
        },
        "mandatoryVariable": true,
        "mandatoryValue": true
      },
      {
        "name": "LBCAT",
        "isNonStandard": false,
        "assignedTerm": {
          "value": "CHEMISTRY"
        },
        "role": "Qualifier",
        "relationship": {
          "subject": "LBCAT",
          "linkingPhrase": "groups values in",
          "predicateTerm": "GROUPS",
          "object": "LBTESTCD"
        },
        "mandatoryVariable": true,
        "mandatoryValue": false
      },
      {
        "name": "LBORRES",
        "dataElementConceptId": "C70856",
        "isNonStandard": false,
        "role": "Qualifier",
        "dataType": "float",
        "length": 12,
        "format": "12.4",
        "significantDigits": 4,
        "relationship": {
          "subject": "LBORRES",
          "linkingPhrase": "is the result of the test in",
          "predicateTerm": "IS_RESULT_OF",
          "object": "LBTESTCD"
        },
        "mandatoryVariable": true,
        "mandatoryValue": false,
        "originType": "Collected",
        "originSource": "Vendor",
        "vlmTarget": true
      },
      {
        "name": "LBORRESU",
        "dataElementConceptId": "C64567",
        "isNonStandard": false,
        "codelist": {
          "conceptId": "C71620",
          "submissionValue": "UNIT",
          "href": "https://evsexplore.semantics.cancer.gov/evsexplore/concept/ncit/C71620"
        },
        "valueList": [
          "mEq/L",
          "mEq/dL",
          "mmol/L"
        ],
        "role": "Qualifier",
        "relationship": {
          "subject": "LBORRESU",
          "linkingPhrase": "is the unit for the value in",
          "predicateTerm": "IS_UNIT_FOR",
          "object": "LBORRES"
        },
        "mandatoryVariable": true,
        "mandatoryValue": false,
        "vlmTarget": true
      },
      {
        "name": "LBSTRESC",
        "dataElementConceptId": "C70856",
        "isNonStandard": false,
        "role": "Qualifier",
        "dataType": "float",
        "length": 12,
        "format": "12.4",
        "significantDigits": 4,
        "relationship": {
          "subject": "LBSTRESC",
          "linkingPhrase": "is the result of the test in",
          "predicateTerm": "IS_RESULT_OF",
          "object": "LBTESTCD"
        },
        "mandatoryVariable": true,
        "mandatoryValue": false,
        "originType": "Collected",
        "originSource": "Vendor",
        "vlmTarget": true
      },
      {
        "name": "LBSTRESN",
        "dataElementConceptId": "C70856",
        "isNonStandard": false,
        "role": "Qualifier",
        "dataType": "float",
        "length": 12,
        "format": "12.4",
        "significantDigits": 4,
        "relationship": {
          "subject": "LBSTRESN",
          "linkingPhrase": "is the result of the test in",
          "predicateTerm": "IS_RESULT_OF",
          "object": "LBTESTCD"
        },
        "mandatoryVariable": true,
        "mandatoryValue": false,
        "originType": "Collected",
        "originSource": "Vendor",
        "vlmTarget": true
      },
      {
        "name": "LBSTRESU",
        "dataElementConceptId": "C64567",
        "isNonStandard": false,
        "codelist": {
          "conceptId": "C71620",
          "submissionValue": "UNIT",
          "href": "https://evsexplore.semantics.cancer.gov/evsexplore/concept/ncit/C71620"
        },
        "assignedTerm": {
          "conceptId": "C64387",
          "value": "mmol/L"
        },
        "role": "Qualifier",
        "relationship": {
          "subject": "LBSTRESU",
          "linkingPhrase": "is the unit for the value in",
          "predicateTerm": "IS_UNIT_FOR",
          "object": "LBSTRESN"
        },
        "mandatoryVariable": true,
        "mandatoryValue": false,
        "vlmTarget": true
      },
      {
        "name": "LBLOINC",
        "isNonStandard": false,
        "valueList": [
          "75940-7",
          "6298-4"
        ],
        "role": "Qualifier",
        "relationship": {
          "subject": "LBLOINC",
          "linkingPhrase": "identifies an observation described by",
          "predicateTerm": "IDENTIFIES_OBSERVATION",
          "object": "LBTESTCD"
        },
        "mandatoryVariable": false,
        "mandatoryValue": false
      },
      {
        "name": "LBSPEC",
        "dataElementConceptId": "C70713",
        "isNonStandard": false,
        "codelist": {
          "conceptId": "C78734",
          "submissionValue": "SPECTYPE",
          "href": "https://evsexplore.semantics.cancer.gov/evsexplore/concept/ncit/C78734"
        },
        "assignedTerm": {
          "conceptId": "C12434",
          "value": "BLOOD"
        },
        "role": "Qualifier",
        "relationship": {
          "subject": "LBSPEC",
          "linkingPhrase": "is the specimen tested in",
          "predicateTerm": "IS_SPECIMEN_TESTED_IN",
          "object": "LBTESTCD"
        },
        "mandatoryVariable": true,
        "mandatoryValue": false,
        "comparator": "EQ"
      },
      {
        "name": "LBFAST",
        "dataElementConceptId": "C93566",
        "isNonStandard": false,
        "codelist": {
          "conceptId": "C66742",
          "submissionValue": "NY",
          "href": "https://evsexplore.semantics.cancer.gov/evsexplore/concept/ncit/C66742"
        },
        "subsetCodelist": "NY_NY",
        "valueList": [
          "N",
          "Y"
        ],
        "role": "Qualifier",
        "relationship": {
          "subject": "LBFAST",
          "linkingPhrase": "is the subject's fasting status during the performance of the test in",
          "predicateTerm": "IS_SUBJECT_STATE_FOR",
          "object": "LBTESTCD"
        },
        "mandatoryVariable": false,
        "mandatoryValue": false
      },
      {
        "name": "LBDTC",
        "dataElementConceptId": "C82515",
        "isNonStandard": false,
        "role": "Timing",
        "relationship": {
          "subject": "LBDTC",
          "linkingPhrase": "is the date of occurrence for",
          "predicateTerm": "IS_TIMING_FOR",
          "object": "LBTESTCD"
        },
        "mandatoryVariable": true,
        "mandatoryValue": false
      }
    ]
  },
  {
    "_links": {
      "parentBiomedicalConcept": {
        "href": "/mdr/bc/biomedicalconcepts/C64809",
        "title": "Sodium Measurement",
        "type": "Biomedical Concept"
      },
      "parentPackage": {
        "href": "/mdr/specializations/sdtm/packages/2025-12-16/datasetspecializations",
        "title": "SDTM Dataset Specialization Package Effective 2025-12-16",
        "type": "SDTM Dataset Specialization Package"
      },
      "self": {
        "href": "/mdr/specializations/sdtm/datasetspecializations/SODIUMSERPL",
        "title": "Sodium Concentration in Serum or Plasma",
        "type": "SDTM Dataset Specialization"
      }
    },
    "datasetSpecializationId": "SODIUMSERPL",
    "domain": "LB",
    "shortName": "Sodium Concentration in Serum or Plasma",
    "source": "LB.LBTESTCD",
    "sdtmigStartVersion": "3-2",
    "sdtmigEndVersion": "",
    "variables": [
      {
        "name": "LBTESTCD",
        "isNonStandard": false,
        "codelist": {
          "conceptId": "C65047",
          "submissionValue": "LBTESTCD",
          "href": "https://evsexplore.semantics.cancer.gov/evsexplore/concept/ncit/C65047"
        },
        "assignedTerm": {
          "conceptId": "C64809",
          "value": "SODIUM"
        },
        "role": "Topic",
        "relationship": {
          "subject": "LBTESTCD",
          "linkingPhrase": "is the code for the value in",
          "predicateTerm": "IS_DECODED_BY",
          "object": "LBTEST"
        },
        "mandatoryVariable": true,
        "mandatoryValue": true,
        "comparator": "EQ"
      },
      {
        "name": "LBTEST",
        "isNonStandard": false,
        "codelist": {
          "conceptId": "C67154",
          "submissionValue": "LBTEST",
          "href": "https://evsexplore.semantics.cancer.gov/evsexplore/concept/ncit/C67154"
        },
        "assignedTerm": {
          "conceptId": "C64809",
          "value": "Sodium"
        },
        "role": "Qualifier",
        "relationship": {
          "subject": "LBTEST",
          "linkingPhrase": "decodes the value in",
          "predicateTerm": "DECODES",
          "object": "LBTESTCD"
        },
        "mandatoryVariable": true,
        "mandatoryValue": true
      },
      {
        "name": "LBCAT",
        "isNonStandard": false,
        "assignedTerm": {
          "value": "CHEMISTRY"
        },
        "role": "Qualifier",
        "relationship": {
          "subject": "LBCAT",
          "linkingPhrase": "groups values in",
          "predicateTerm": "GROUPS",
          "object": "LBTESTCD"
        },
        "mandatoryVariable": true,
        "mandatoryValue": false
      },
      {
        "name": "LBORRES",
        "dataElementConceptId": "C70856",
        "isNonStandard": false,
        "role": "Qualifier",
        "dataType": "float",
        "length": 12,
        "format": "12.4",
        "significantDigits": 4,
        "relationship": {
          "subject": "LBORRES",
          "linkingPhrase": "is the result of the test in",
          "predicateTerm": "IS_RESULT_OF",
          "object": "LBTESTCD"
        },
        "mandatoryVariable": true,
        "mandatoryValue": false,
        "originType": "Collected",
        "originSource": "Vendor",
        "vlmTarget": true
      },
      {
        "name": "LBORRESU",
        "dataElementConceptId": "C64567",
        "isNonStandard": false,
        "codelist": {
          "conceptId": "C71620",
          "submissionValue": "UNIT",
          "href": "https://evsexplore.semantics.cancer.gov/evsexplore/concept/ncit/C71620"
        },
        "valueList": [
          "mEq/L",
          "mEq/dL",
          "mmol/L"
        ],
        "role": "Qualifier",
        "relationship": {
          "subject": "LBORRESU",
          "linkingPhrase": "is the unit for the value in",
          "predicateTerm": "IS_UNIT_FOR",
          "object": "LBORRES"
        },
        "mandatoryVariable": true,
        "mandatoryValue": false,
        "vlmTarget": true
      },
      {
        "name": "LBSTRESC",
        "dataElementConceptId": "C70856",
        "isNonStandard": false,
        "role": "Qualifier",
        "dataType": "float",
        "length": 12,
        "format": "12.4",
        "significantDigits": 4,
        "relationship": {
          "subject": "LBSTRESC",
          "linkingPhrase": "is the result of the test in",
          "predicateTerm": "IS_RESULT_OF",
          "object": "LBTESTCD"
        },
        "mandatoryVariable": true,
        "mandatoryValue": false,
        "originType": "Collected",
        "originSource": "Vendor",
        "vlmTarget": true
      },
      {
        "name": "LBSTRESN",
        "dataElementConceptId": "C70856",
        "isNonStandard": false,
        "role": "Qualifier",
        "dataType": "float",
        "length": 12,
        "format": "12.4",
        "significantDigits": 4,
        "relationship": {
          "subject": "LBSTRESN",
          "linkingPhrase": "is the result of the test in",
          "predicateTerm": "IS_RESULT_OF",
          "object": "LBTESTCD"
        },
        "mandatoryVariable": true,
        "mandatoryValue": false,
        "originType": "Collected",
        "originSource": "Vendor",
        "vlmTarget": true
      },
      {
        "name": "LBSTRESU",
        "dataElementConceptId": "C64567",
        "isNonStandard": false,
        "codelist": {
          "conceptId": "C71620",
          "submissionValue": "UNIT",
          "href": "https://evsexplore.semantics.cancer.gov/evsexplore/concept/ncit/C71620"
        },
        "assignedTerm": {
          "conceptId": "C64387",
          "value": "mmol/L"
        },
        "role": "Qualifier",
        "relationship": {
          "subject": "LBSTRESU",
          "linkingPhrase": "is the unit for the value in",
          "predicateTerm": "IS_UNIT_FOR",
          "object": "LBSTRESN"
        },
        "mandatoryVariable": true,
        "mandatoryValue": false,
        "vlmTarget": true
      },
      {
        "name": "LBLOINC",
        "isNonStandard": false,
        "assignedTerm": {
          "value": "2951-2"
        },
        "role": "Qualifier",
        "relationship": {
          "subject": "LBLOINC",
          "linkingPhrase": "identifies an observation described by",
          "predicateTerm": "IDENTIFIES_OBSERVATION",
          "object": "LBTESTCD"
        },
        "mandatoryVariable": false,
        "mandatoryValue": false
      },
      {
        "name": "LBSPEC",
        "dataElementConceptId": "C70713",
        "isNonStandard": false,
        "codelist": {
          "conceptId": "C78734",
          "submissionValue": "SPECTYPE",
          "href": "https://evsexplore.semantics.cancer.gov/evsexplore/concept/ncit/C78734"
        },
        "assignedTerm": {
          "conceptId": "C105706",
          "value": "SERUM OR PLASMA"
        },
        "role": "Qualifier",
        "relationship": {
          "subject": "LBSPEC",
          "linkingPhrase": "is the specimen tested in",
          "predicateTerm": "IS_SPECIMEN_TESTED_IN",
          "object": "LBTESTCD"
        },
        "mandatoryVariable": true,
        "mandatoryValue": false,
        "comparator": "EQ"
      },
      {
        "name": "LBFAST",
        "dataElementConceptId": "C93566",
        "isNonStandard": false,
        "codelist": {
          "conceptId": "C66742",
          "submissionValue": "NY",
          "href": "https://evsexplore.semantics.cancer.gov/evsexplore/concept/ncit/C66742"
        },
        "subsetCodelist": "NY_NY",
        "valueList": [
          "N",
          "Y"
        ],
        "role": "Qualifier",
        "relationship": {
          "subject": "LBFAST",
          "linkingPhrase": "is the subject's fasting status during the performance of the test in",
          "predicateTerm": "IS_SUBJECT_STATE_FOR",
          "object": "LBTESTCD"
        },
        "mandatoryVariable": false,
        "mandatoryValue": false
      },
      {
        "name": "LBDTC",
        "dataElementConceptId": "C82515",
        "isNonStandard": false,
        "role": "Timing",
        "relationship": {
          "subject": "LBDTC",
          "linkingPhrase": "is the date of occurrence for",
          "predicateTerm": "IS_TIMING_FOR",
          "object": "LBTESTCD"
        },
        "mandatoryVariable": true,
        "mandatoryValue": false
      }
    ]
  },
  {
    "_links": {
      "parentBiomedicalConcept": {
        "href": "/mdr/bc/biomedicalconcepts/C64809",
        "title": "Sodium Measurement",
        "type": "Biomedical Concept"
      },
      "parentPackage": {
        "href": "/mdr/specializations/sdtm/packages/2025-12-16/datasetspecializations",
        "title": "SDTM Dataset Specialization Package Effective 2025-12-16",
        "type": "SDTM Dataset Specialization Package"
      },
      "self": {
        "href": "/mdr/specializations/sdtm/datasetspecializations/SODIUMBLD",
        "title": "Sodium Concentration in Blood",
        "type": "SDTM Dataset Specialization"
      }
    },
    "datasetSpecializationId": "SODIUMBLD",
    "domain": "LB",
    "shortName": "Sodium Concentration in Blood",
    "source": "LB.LBTESTCD",
    "sdtmigStartVersion": "3-2",
    "sdtmigEndVersion": "",
    "variables": [
      {
        "name": "LBTESTCD",
        "isNonStandard": false,
        "codelist": {
          "conceptId": "C65047",
          "submissionValue": "LBTESTCD",
          "href": "https://evsexplore.semantics.cancer.gov/evsexplore/concept/ncit/C65047"
        },
        "assignedTerm": {
          "conceptId": "C64809",
          "value": "SODIUM"
        },
        "role": "Topic",
        "relationship": {
          "subject": "LBTESTCD",
          "linkingPhrase": "is the code for the value in",
          "predicateTerm": "IS_DECODED_BY",
          "object": "LBTEST"
        },
        "mandatoryVariable": true,
        "mandatoryValue": true,
        "comparator": "EQ"
      },
      {
        "name": "LBTEST",
        "isNonStandard": false,
        "codelist": {
          "conceptId": "C67154",
          "submissionValue": "LBTEST",
          "href": "https://evsexplore.semantics.cancer.gov/evsexplore/concept/ncit/C67154"
        },
        "assignedTerm": {
          "conceptId": "C64809",
          "value": "Sodium"
        },
        "role": "Qualifier",
        "relationship": {
          "subject": "LBTEST",
          "linkingPhrase": "decodes the value in",
          "predicateTerm": "DECODES",
          "object": "LBTESTCD"
        },
        "mandatoryVariable": true,
        "mandatoryValue": true
      },
      {
        "name": "LBCAT",
        "isNonStandard": false,
        "assignedTerm": {
          "value": "CHEMISTRY"
        },
        "role": "Qualifier",
        "relationship": {
          "subject": "LBCAT",
          "linkingPhrase": "groups values in",
          "predicateTerm": "GROUPS",
          "object": "LBTESTCD"
        },
        "mandatoryVariable": true,
        "mandatoryValue": false
      },
      {
        "name": "LBORRES",
        "dataElementConceptId": "C70856",
        "isNonStandard": false,
        "role": "Qualifier",
        "dataType": "float",
        "length": 12,
        "format": "12.4",
        "significantDigits": 4,
        "relationship": {
          "subject": "LBORRES",
          "linkingPhrase": "is the result of the test in",
          "predicateTerm": "IS_RESULT_OF",
          "object": "LBTESTCD"
        },
        "mandatoryVariable": true,
        "mandatoryValue": false,
        "originType": "Collected",
        "originSource": "Vendor",
        "vlmTarget": true
      },
      {
        "name": "LBORRESU",
        "dataElementConceptId": "C64567",
        "isNonStandard": false,
        "codelist": {
          "conceptId": "C71620",
          "submissionValue": "UNIT",
          "href": "https://evsexplore.semantics.cancer.gov/evsexplore/concept/ncit/C71620"
        },
        "valueList": [
          "mEq/L",
          "mEq/dL",
          "mmol/L"
        ],
        "role": "Qualifier",
        "relationship": {
          "subject": "LBORRESU",
          "linkingPhrase": "is the unit for the value in",
          "predicateTerm": "IS_UNIT_FOR",
          "object": "LBORRES"
        },
        "mandatoryVariable": true,
        "mandatoryValue": false,
        "vlmTarget": true
      },
      {
        "name": "LBSTRESC",
        "dataElementConceptId": "C70856",
        "isNonStandard": false,
        "role": "Qualifier",
        "dataType": "float",
        "length": 12,
        "format": "12.4",
        "significantDigits": 4,
        "relationship": {
          "subject": "LBSTRESC",
          "linkingPhrase": "is the result of the test in",
          "predicateTerm": "IS_RESULT_OF",
          "object": "LBTESTCD"
        },
        "mandatoryVariable": true,
        "mandatoryValue": false,
        "originType": "Collected",
        "originSource": "Vendor",
        "vlmTarget": true
      },
      {
        "name": "LBSTRESN",
        "dataElementConceptId": "C70856",
        "isNonStandard": false,
        "role": "Qualifier",
        "dataType": "float",
        "length": 12,
        "format": "12.4",
        "significantDigits": 4,
        "relationship": {
          "subject": "LBSTRESN",
          "linkingPhrase": "is the result of the test in",
          "predicateTerm": "IS_RESULT_OF",
          "object": "LBTESTCD"
        },
        "mandatoryVariable": true,
        "mandatoryValue": false,
        "originType": "Collected",
        "originSource": "Vendor",
        "vlmTarget": true
      },
      {
        "name": "LBSTRESU",
        "dataElementConceptId": "C64567",
        "isNonStandard": false,
        "codelist": {
          "conceptId": "C71620",
          "submissionValue": "UNIT",
          "href": "https://evsexplore.semantics.cancer.gov/evsexplore/concept/ncit/C71620"
        },
        "assignedTerm": {
          "conceptId": "C64387",
          "value": "mmol/L"
        },
        "role": "Qualifier",
        "relationship": {
          "subject": "LBSTRESU",
          "linkingPhrase": "is the unit for the value in",
          "predicateTerm": "IS_UNIT_FOR",
          "object": "LBSTRESN"
        },
        "mandatoryVariable": true,
        "mandatoryValue": false,
        "vlmTarget": true
      },
      {
        "name": "LBLOINC",
        "isNonStandard": false,
        "assignedTerm": {
          "value": "2947-0"
        },
        "role": "Qualifier",
        "relationship": {
          "subject": "LBLOINC",
          "linkingPhrase": "identifies an observation described by",
          "predicateTerm": "IDENTIFIES_OBSERVATION",
          "object": "LBTESTCD"
        },
        "mandatoryVariable": false,
        "mandatoryValue": false
      },
      {
        "name": "LBSPEC",
        "dataElementConceptId": "C70713",
        "isNonStandard": false,
        "codelist": {
          "conceptId": "C78734",
          "submissionValue": "SPECTYPE",
          "href": "https://evsexplore.semantics.cancer.gov/evsexplore/concept/ncit/C78734"
        },
        "assignedTerm": {
          "conceptId": "C12434",
          "value": "BLOOD"
        },
        "role": "Qualifier",
        "relationship": {
          "subject": "LBSPEC",
          "linkingPhrase": "is the specimen tested in",
          "predicateTerm": "IS_SPECIMEN_TESTED_IN",
          "object": "LBTESTCD"
        },
        "mandatoryVariable": true,
        "mandatoryValue": false,
        "comparator": "EQ"
      },
      {
        "name": "LBFAST",
        "dataElementConceptId": "C93566",
        "isNonStandard": false,
        "codelist": {
          "conceptId": "C66742",
          "submissionValue": "NY",
          "href": "https://evsexplore.semantics.cancer.gov/evsexplore/concept/ncit/C66742"
        },
        "subsetCodelist": "NY_NY",
        "valueList": [
          "N",
          "Y"
        ],
        "role": "Qualifier",
        "relationship": {
          "subject": "LBFAST",
          "linkingPhrase": "is the subject's fasting status during the performance of the test in",
          "predicateTerm": "IS_SUBJECT_STATE_FOR",
          "object": "LBTESTCD"
        },
        "mandatoryVariable": false,
        "mandatoryValue": false
      },
      {
        "name": "LBDTC",
        "dataElementConceptId": "C82515",
        "isNonStandard": false,
        "role": "Timing",
        "relationship": {
          "subject": "LBDTC",
          "linkingPhrase": "is the date of occurrence for",
          "predicateTerm": "IS_TIMING_FOR",
          "object": "LBTESTCD"
        },
        "mandatoryVariable": true,
        "mandatoryValue": false
      }
    ]
  },
  {
    "_links": {
      "parentBiomedicalConcept": {
        "href": "/mdr/bc/biomedicalconcepts/C16358",
        "title": "Body Mass Index",
        "type": "Biomedical Concept"
      },
      "parentPackage": {
        "href": "/mdr/specializations/sdtm/packages/2024-12-16/datasetspecializations",
        "title": "SDTM Dataset Specialization Package Effective 2024-12-16",
        "type": "SDTM Dataset Specialization Package"
      },
      "self": {
        "href": "/mdr/specializations/sdtm/datasetspecializations/BMI",
        "title": "Body Mass Index",
        "type": "SDTM Dataset Specialization"
      }
    },
    "datasetSpecializationId": "BMI",
    "domain": "VS",
    "shortName": "Body Mass Index",
    "source": "VS.VSTESTCD",
    "sdtmigStartVersion": "3-2",
    "sdtmigEndVersion": "",
    "variables": [
      {
        "name": "VSTESTCD",
        "isNonStandard": false,
        "codelist": {
          "conceptId": "C66741",
          "submissionValue": "VSTESTCD",
          "href": "https://evsexplore.semantics.cancer.gov/evsexplore/concept/ncit/C66741"
        },
        "assignedTerm": {
          "conceptId": "C16358",
          "value": "BMI"
        },
        "role": "Topic",
        "relationship": {
          "subject": "VSTESTCD",
          "linkingPhrase": "is the code for the value in",
          "predicateTerm": "IS_DECODED_BY",
          "object": "VSTEST"
        },
        "mandatoryVariable": true,
        "mandatoryValue": false,
        "comparator": "EQ"
      },
      {
        "name": "VSTEST",
        "isNonStandard": false,
        "codelist": {
          "conceptId": "C67153",
          "submissionValue": "VSTEST",
          "href": "https://evsexplore.semantics.cancer.gov/evsexplore/concept/ncit/C67153"
        },
        "assignedTerm": {
          "conceptId": "C16358",
          "value": "Body Mass Index"
        },
        "role": "Qualifier",
        "relationship": {
          "subject": "VSTEST",
          "linkingPhrase": "decodes the value in",
          "predicateTerm": "DECODES",
          "object": "VSTESTCD"
        },
        "mandatoryVariable": true,
        "mandatoryValue": false
      },
      {
        "name": "VSORRES",
        "dataElementConceptId": "C70856",
        "isNonStandard": false,
        "role": "Qualifier",
        "dataType": "float",
        "length": 8,
        "format": "8.3",
        "relationship": {
          "subject": "VSORRES",
          "linkingPhrase": "is the result of the test in",
          "predicateTerm": "IS_RESULT_OF",
          "object": "VSTESTCD"
        },
        "mandatoryVariable": true,
        "mandatoryValue": false,
        "originType": "Derived",
        "originSource": "Sponsor",
        "vlmTarget": true
      },
      {
        "name": "VSORRESU",
        "dataElementConceptId": "C42575",
        "isNonStandard": false,
        "codelist": {
          "conceptId": "C71620",
          "submissionValue": "UNIT",
          "href": "https://evsexplore.semantics.cancer.gov/evsexplore/concept/ncit/C71620"
        },
        "subsetCodelist": "UNIT_BMI",
        "valueList": [
          "kg/m2",
          "psi"
        ],
        "role": "Qualifier",
        "relationship": {
          "subject": "VSORRESU",
          "linkingPhrase": "is the unit for the value in",
          "predicateTerm": "IS_UNIT_FOR",
          "object": "VSORRES"
        },
        "mandatoryVariable": true,
        "mandatoryValue": false,
        "vlmTarget": true
      },
      {
        "name": "VSSTRESC",
        "dataElementConceptId": "C70856",
        "isNonStandard": false,
        "role": "Qualifier",
        "dataType": "float",
        "length": 8,
        "format": "8.3",
        "significantDigits": 3,
        "relationship": {
          "subject": "VSSTRESC",
          "linkingPhrase": "is the result of the test in",
          "predicateTerm": "IS_RESULT_OF",
          "object": "VSTESTCD"
        },
        "mandatoryVariable": false,
        "mandatoryValue": false,
        "vlmTarget": true
      },
      {
        "name": "VSSTRESN",
        "dataElementConceptId": "C70856",
        "isNonStandard": false,
        "role": "Qualifier",
        "dataType": "float",
        "length": 8,
        "format": "8.3",
        "significantDigits": 3,
        "relationship": {
          "subject": "VSSTRESN",
          "linkingPhrase": "is the result of the test in",
          "predicateTerm": "IS_RESULT_OF",
          "object": "VSTESTCD"
        },
        "mandatoryVariable": false,
        "mandatoryValue": false,
        "vlmTarget": true
      },
      {
        "name": "VSSTRESU",
        "dataElementConceptId": "C42575",
        "isNonStandard": false,
        "codelist": {
          "conceptId": "C66770",
          "submissionValue": "VSRESU",
          "href": "https://evsexplore.semantics.cancer.gov/evsexplore/concept/ncit/C66770"
        },
        "role": "Qualifier",
        "relationship": {
          "subject": "VSSTRESU",
          "linkingPhrase": "is the unit for the value in",
          "predicateTerm": "IS_UNIT_FOR",
          "object": "VSSTRESN"
        },
        "mandatoryVariable": false,
        "mandatoryValue": false,
        "vlmTarget": true
      },
      {
        "name": "VSDTC",
        "dataElementConceptId": "C82515",
        "isNonStandard": false,
        "role": "Timing",
        "relationship": {
          "subject": "VSDTC",
          "linkingPhrase": "is the date of occurrence for",
          "predicateTerm": "IS_TIMING_FOR",
          "object": "VSTESTCD"
        },
        "mandatoryVariable": true,
        "mandatoryValue": false
      }
    ]
  },
  {
    "_links": {
      "parentBiomedicalConcept": {
        "href": "/mdr/bc/biomedicalconcepts/C64809",
        "title": "Sodium Measurement",
        "type": "Biomedical Concept"
      },
      "parentPackage": {
        "href": "/mdr/specializations/sdtm/packages/2025-12-16/datasetspecializations",
        "title": "SDTM Dataset Specialization Package Effective 2025-12-16",
        "type": "SDTM Dataset Specialization Package"
      },
      "self": {
        "href": "/mdr/specializations/sdtm/datasetspecializations/SODIUMURIN",
        "title": "Sodium Concentration in Urine",
        "type": "SDTM Dataset Specialization"
      }
    },
    "datasetSpecializationId": "SODIUMURIN",
    "domain": "LB",
    "shortName": "Sodium Concentration in Urine",
    "source": "LB.LBTESTCD",
    "sdtmigStartVersion": "3-2",
    "sdtmigEndVersion": "",
    "variables": [
      {
        "name": "LBTESTCD",
        "isNonStandard": false,
        "codelist": {
          "conceptId": "C65047",
          "submissionValue": "LBTESTCD",
          "href": "https://evsexplore.semantics.cancer.gov/evsexplore/concept/ncit/C65047"
        },
        "assignedTerm": {
          "conceptId": "C64809",
          "value": "SODIUM"
        },
        "role": "Topic",
        "relationship": {
          "subject": "LBTESTCD",
          "linkingPhrase": "is the code for the value in",
          "predicateTerm": "IS_DECODED_BY",
          "object": "LBTEST"
        },
        "mandatoryVariable": true,
        "mandatoryValue": true,
        "comparator": "EQ"
      },
      {
        "name": "LBTEST",
        "isNonStandard": false,
        "codelist": {
          "conceptId": "C67154",
          "submissionValue": "LBTEST",
          "href": "https://evsexplore.semantics.cancer.gov/evsexplore/concept/ncit/C67154"
        },
        "assignedTerm": {
          "conceptId": "C64809",
          "value": "Sodium"
        },
        "role": "Qualifier",
        "relationship": {
          "subject": "LBTEST",
          "linkingPhrase": "decodes the value in",
          "predicateTerm": "DECODES",
          "object": "LBTESTCD"
        },
        "mandatoryVariable": true,
        "mandatoryValue": true
      },
      {
        "name": "LBCAT",
        "isNonStandard": false,
        "assignedTerm": {
          "value": "CHEMISTRY"
        },
        "role": "Qualifier",
        "relationship": {
          "subject": "LBCAT",
          "linkingPhrase": "groups values in",
          "predicateTerm": "GROUPS",
          "object": "LBTESTCD"
        },
        "mandatoryVariable": true,
        "mandatoryValue": false
      },
      {
        "name": "LBORRES",
        "dataElementConceptId": "C70856",
        "isNonStandard": false,
        "role": "Qualifier",
        "dataType": "float",
        "length": 12,
        "format": "12.4",
        "significantDigits": 4,
        "relationship": {
          "subject": "LBORRES",
          "linkingPhrase": "is the result of the test in",
          "predicateTerm": "IS_RESULT_OF",
          "object": "LBTESTCD"
        },
        "mandatoryVariable": true,
        "mandatoryValue": false,
        "originType": "Collected",
        "originSource": "Vendor",
        "vlmTarget": true
      },
      {
        "name": "LBORRESU",
        "dataElementConceptId": "C64567",
        "isNonStandard": false,
        "codelist": {
          "conceptId": "C71620",
          "submissionValue": "UNIT",
          "href": "https://evsexplore.semantics.cancer.gov/evsexplore/concept/ncit/C71620"
        },
        "valueList": [
          "mEq/L",
          "mEq/dL",
          "mmol/L"
        ],
        "role": "Qualifier",
        "relationship": {
          "subject": "LBORRESU",
          "linkingPhrase": "is the unit for the value in",
          "predicateTerm": "IS_UNIT_FOR",
          "object": "LBORRES"
        },
        "mandatoryVariable": true,
        "mandatoryValue": false,
        "vlmTarget": true
      },
      {
        "name": "LBSTRESC",
        "dataElementConceptId": "C70856",
        "isNonStandard": false,
        "role": "Qualifier",
        "dataType": "float",
        "length": 12,
        "format": "12.4",
        "significantDigits": 4,
        "relationship": {
          "subject": "LBSTRESC",
          "linkingPhrase": "is the result of the test in",
          "predicateTerm": "IS_RESULT_OF",
          "object": "LBTESTCD"
        },
        "mandatoryVariable": true,
        "mandatoryValue": false,
        "originType": "Collected",
        "originSource": "Vendor",
        "vlmTarget": true
      },
      {
        "name": "LBSTRESN",
        "dataElementConceptId": "C70856",
        "isNonStandard": false,
        "role": "Qualifier",
        "dataType": "float",
        "length": 12,
        "format": "12.4",
        "significantDigits": 4,
        "relationship": {
          "subject": "LBSTRESN",
          "linkingPhrase": "is the result of the test in",
          "predicateTerm": "IS_RESULT_OF",
          "object": "LBTESTCD"
        },
        "mandatoryVariable": true,
        "mandatoryValue": false,
        "originType": "Collected",
        "originSource": "Vendor",
        "vlmTarget": true
      },
      {
        "name": "LBSTRESU",
        "dataElementConceptId": "C64567",
        "isNonStandard": false,
        "codelist": {
          "conceptId": "C71620",
          "submissionValue": "UNIT",
          "href": "https://evsexplore.semantics.cancer.gov/evsexplore/concept/ncit/C71620"
        },
        "assignedTerm": {
          "conceptId": "C64387",
          "value": "mmol/L"
        },
        "role": "Qualifier",
        "relationship": {
          "subject": "LBSTRESU",
          "linkingPhrase": "is the unit for the value in",
          "predicateTerm": "IS_UNIT_FOR",
          "object": "LBSTRESN"
        },
        "mandatoryVariable": true,
        "mandatoryValue": false,
        "vlmTarget": true
      },
      {
        "name": "LBLOINC",
        "isNonStandard": false,
        "assignedTerm": {
          "value": "2955-3"
        },
        "role": "Qualifier",
        "relationship": {
          "subject": "LBLOINC",
          "linkingPhrase": "identifies an observation described by",
          "predicateTerm": "IDENTIFIES_OBSERVATION",
          "object": "LBTESTCD"
        },
        "mandatoryVariable": false,
        "mandatoryValue": false
      },
      {
        "name": "LBSPEC",
        "dataElementConceptId": "C70713",
        "isNonStandard": false,
        "codelist": {
          "conceptId": "C78734",
          "submissionValue": "SPECTYPE",
          "href": "https://evsexplore.semantics.cancer.gov/evsexplore/concept/ncit/C78734"
        },
        "assignedTerm": {
          "conceptId": "C13283",
          "value": "URINE"
        },
        "role": "Qualifier",
        "relationship": {
          "subject": "LBSPEC",
          "linkingPhrase": "is the specimen tested in",
          "predicateTerm": "IS_SPECIMEN_TESTED_IN",
          "object": "LBTESTCD"
        },
        "mandatoryVariable": true,
        "mandatoryValue": false,
        "comparator": "EQ"
      },
      {
        "name": "LBFAST",
        "dataElementConceptId": "C93566",
        "isNonStandard": false,
        "codelist": {
          "conceptId": "C66742",
          "submissionValue": "NY",
          "href": "https://evsexplore.semantics.cancer.gov/evsexplore/concept/ncit/C66742"
        },
        "subsetCodelist": "NY_NY",
        "valueList": [
          "N",
          "Y"
        ],
        "role": "Qualifier",
        "relationship": {
          "subject": "LBFAST",
          "linkingPhrase": "is the subject's fasting status during the performance of the test in",
          "predicateTerm": "IS_SUBJECT_STATE_FOR",
          "object": "LBTESTCD"
        },
        "mandatoryVariable": false,
        "mandatoryValue": false
      },
      {
        "name": "LBDTC",
        "dataElementConceptId": "C82515",
        "isNonStandard": false,
        "role": "Timing",
        "relationship": {
          "subject": "LBDTC",
          "linkingPhrase": "is the date of occurrence for",
          "predicateTerm": "IS_TIMING_FOR",
          "object": "LBTESTCD"
        },
        "mandatoryVariable": true,
        "mandatoryValue": false
      }
    ]
  },
  {
    "_links": {
      "parentBiomedicalConcept": {
        "href": "/mdr/bc/biomedicalconcepts/C64853",
        "title": "Potassium Measurement",
        "type": "Biomedical Concept"
      },
      "parentPackage": {
        "href": "/mdr/specializations/sdtm/packages/2025-12-16/datasetspecializations",
        "title": "SDTM Dataset Specialization Package Effective 2025-12-16",
        "type": "SDTM Dataset Specialization Package"
      },
      "self": {
        "href": "/mdr/specializations/sdtm/datasetspecializations/KURIN",
        "title": "Potassium Concentration in Urine",
        "type": "SDTM Dataset Specialization"
      }
    },
    "datasetSpecializationId": "KURIN",
    "domain": "LB",
    "shortName": "Potassium Concentration in Urine",
    "source": "LB.LBTESTCD",
    "sdtmigStartVersion": "3-2",
    "sdtmigEndVersion": "",
    "variables": [
      {
        "name": "LBTESTCD",
        "isNonStandard": false,
        "codelist": {
          "conceptId": "C65047",
          "submissionValue": "LBTESTCD",
          "href": "https://evsexplore.semantics.cancer.gov/evsexplore/concept/ncit/C65047"
        },
        "assignedTerm": {
          "conceptId": "C64853",
          "value": "K"
        },
        "role": "Topic",
        "relationship": {
          "subject": "LBTESTCD",
          "linkingPhrase": "is the code for the value in",
          "predicateTerm": "IS_DECODED_BY",
          "object": "LBTEST"
        },
        "mandatoryVariable": true,
        "mandatoryValue": true,
        "comparator": "EQ"
      },
      {
        "name": "LBTEST",
        "isNonStandard": false,
        "codelist": {
          "conceptId": "C67154",
          "submissionValue": "LBTEST",
          "href": "https://evsexplore.semantics.cancer.gov/evsexplore/concept/ncit/C67154"
        },
        "assignedTerm": {
          "conceptId": "C64853",
          "value": "Potassium"
        },
        "role": "Qualifier",
        "relationship": {
          "subject": "LBTEST",
          "linkingPhrase": "decodes the value in",
          "predicateTerm": "DECODES",
          "object": "LBTESTCD"
        },
        "mandatoryVariable": true,
        "mandatoryValue": true
      },
      {
        "name": "LBCAT",
        "isNonStandard": false,
        "assignedTerm": {
          "value": "CHEMISTRY"
        },
        "role": "Qualifier",
        "relationship": {
          "subject": "LBCAT",
          "linkingPhrase": "groups values in",
          "predicateTerm": "GROUPS",
          "object": "LBTESTCD"
        },
        "mandatoryVariable": true,
        "mandatoryValue": false
      },
      {
        "name": "LBORRES",
        "dataElementConceptId": "C70856",
        "isNonStandard": false,
        "role": "Qualifier",
        "dataType": "float",
        "length": 12,
        "format": "12.4",
        "significantDigits": 4,
        "relationship": {
          "subject": "LBORRES",
          "linkingPhrase": "is the result of the test in",
          "predicateTerm": "IS_RESULT_OF",
          "object": "LBTESTCD"
        },
        "mandatoryVariable": true,
        "mandatoryValue": false,
        "originType": "Collected",
        "originSource": "Vendor",
        "vlmTarget": true
      },
      {
        "name": "LBORRESU",
        "dataElementConceptId": "C64567",
        "isNonStandard": false,
        "codelist": {
          "conceptId": "C71620",
          "submissionValue": "UNIT",
          "href": "https://evsexplore.semantics.cancer.gov/evsexplore/concept/ncit/C71620"
        },
        "valueList": [
          "mEq/L",
          "mEq/dL",
          "mmol/L"
        ],
        "role": "Qualifier",
        "relationship": {
          "subject": "LBORRESU",
          "linkingPhrase": "is the unit for the value in",
          "predicateTerm": "IS_UNIT_FOR",
          "object": "LBORRES"
        },
        "mandatoryVariable": true,
        "mandatoryValue": false,
        "vlmTarget": true
      },
      {
        "name": "LBSTRESC",
        "dataElementConceptId": "C70856",
        "isNonStandard": false,
        "role": "Qualifier",
        "dataType": "float",
        "length": 12,
        "format": "12.4",
        "significantDigits": 4,
        "relationship": {
          "subject": "LBSTRESC",
          "linkingPhrase": "is the result of the test in",
          "predicateTerm": "IS_RESULT_OF",
          "object": "LBTESTCD"
        },
        "mandatoryVariable": true,
        "mandatoryValue": false,
        "originType": "Collected",
        "originSource": "Vendor",
        "vlmTarget": true
      },
      {
        "name": "LBSTRESN",
        "dataElementConceptId": "C70856",
        "isNonStandard": false,
        "role": "Qualifier",
        "dataType": "float",
        "length": 12,
        "format": "12.4",
        "significantDigits": 4,
        "relationship": {
          "subject": "LBSTRESN",
          "linkingPhrase": "is the result of the test in",
          "predicateTerm": "IS_RESULT_OF",
          "object": "LBTESTCD"
        },
        "mandatoryVariable": true,
        "mandatoryValue": false,
        "originType": "Collected",
        "originSource": "Vendor",
        "vlmTarget": true
      },
      {
        "name": "LBSTRESU",
        "dataElementConceptId": "C64567",
        "isNonStandard": false,
        "codelist": {
          "conceptId": "C71620",
          "submissionValue": "UNIT",
          "href": "https://evsexplore.semantics.cancer.gov/evsexplore/concept/ncit/C71620"
        },
        "assignedTerm": {
          "conceptId": "C64387",
          "value": "mmol/L"
        },
        "role": "Qualifier",
        "relationship": {
          "subject": "LBSTRESU",
          "linkingPhrase": "is the unit for the value in",
          "predicateTerm": "IS_UNIT_FOR",
          "object": "LBSTRESN"
        },
        "mandatoryVariable": true,
        "mandatoryValue": false,
        "vlmTarget": true
      },
      {
        "name": "LBLOINC",
        "isNonStandard": false,
        "assignedTerm": {
          "value": "2828-2"
        },
        "role": "Qualifier",
        "relationship": {
          "subject": "LBLOINC",
          "linkingPhrase": "identifies an observation described by",
          "predicateTerm": "IDENTIFIES_OBSERVATION",
          "object": "LBTESTCD"
        },
        "mandatoryVariable": false,
        "mandatoryValue": false
      },
      {
        "name": "LBSPEC",
        "dataElementConceptId": "C70713",
        "isNonStandard": false,
        "codelist": {
          "conceptId": "C78734",
          "submissionValue": "SPECTYPE",
          "href": "https://evsexplore.semantics.cancer.gov/evsexplore/concept/ncit/C78734"
        },
        "assignedTerm": {
          "conceptId": "C13283",
          "value": "URINE"
        },
        "role": "Qualifier",
        "relationship": {
          "subject": "LBSPEC",
          "linkingPhrase": "is the specimen tested in",
          "predicateTerm": "IS_SPECIMEN_TESTED_IN",
          "object": "LBTESTCD"
        },
        "mandatoryVariable": true,
        "mandatoryValue": false,
        "comparator": "EQ"
      },
      {
        "name": "LBFAST",
        "dataElementConceptId": "C93566",
        "isNonStandard": false,
        "codelist": {
          "conceptId": "C66742",
          "submissionValue": "NY",
          "href": "https://evsexplore.semantics.cancer.gov/evsexplore/concept/ncit/C66742"
        },
        "subsetCodelist": "NY_NY",
        "valueList": [
          "N",
          "Y"
        ],
        "role": "Qualifier",
        "relationship": {
          "subject": "LBFAST",
          "linkingPhrase": "is the subject's fasting status during the performance of the test in",
          "predicateTerm": "IS_SUBJECT_STATE_FOR",
          "object": "LBTESTCD"
        },
        "mandatoryVariable": false,
        "mandatoryValue": false
      },
      {
        "name": "LBDTC",
        "dataElementConceptId": "C82515",
        "isNonStandard": false,
        "role": "Timing",
        "relationship": {
          "subject": "LBDTC",
          "linkingPhrase": "is the date of occurrence for",
          "predicateTerm": "IS_TIMING_FOR",
          "object": "LBTESTCD"
        },
        "mandatoryVariable": true,
        "mandatoryValue": false
      }
    ]
  },
  {
    "_links": {
      "parentBiomedicalConcept": {
        "href": "/mdr/bc/biomedicalconcepts/C25299",
        "title": "Diastolic Blood Pressure",
        "type": "Biomedical Concept"
      },
      "parentPackage": {
        "href": "/mdr/specializations/sdtm/packages/2025-04-01/datasetspecializations",
        "title": "SDTM Dataset Specialization Package Effective 2025-04-01",
        "type": "SDTM Dataset Specialization Package"
      },
      "self": {
        "href": "/mdr/specializations/sdtm/datasetspecializations/DIABP",
        "title": "Diastolic Blood Pressure",
        "type": "SDTM Dataset Specialization"
      }
    },
    "datasetSpecializationId": "DIABP",
    "domain": "VS",
    "shortName": "Diastolic Blood Pressure",
    "source": "VS.VSTESTCD",
    "sdtmigStartVersion": "3-2",
    "sdtmigEndVersion": "",
    "variables": [
      {
        "name": "VSTESTCD",
        "isNonStandard": false,
        "codelist": {
          "conceptId": "C66741",
          "submissionValue": "VSTESTCD",
          "href": "https://evsexplore.semantics.cancer.gov/evsexplore/concept/ncit/C66741"
        },
        "assignedTerm": {
          "conceptId": "C25299",
          "value": "DIABP"
        },
        "role": "Topic",
        "relationship": {
          "subject": "VSTESTCD",
          "linkingPhrase": "is the code for the value in",
          "predicateTerm": "IS_DECODED_BY",
          "object": "VSTEST"
        },
        "mandatoryVariable": true,
        "mandatoryValue": false,
        "comparator": "EQ"
      },
      {
        "name": "VSTEST",
        "isNonStandard": false,
        "codelist": {
          "conceptId": "C67153",
          "submissionValue": "VSTEST",
          "href": "https://evsexplore.semantics.cancer.gov/evsexplore/concept/ncit/C67153"
        },
        "assignedTerm": {
          "conceptId": "C25299",
          "value": "Diastolic Blood Pressure"
        },
        "role": "Qualifier",
        "relationship": {
          "subject": "VSTEST",
          "linkingPhrase": "decodes the value in",
          "predicateTerm": "DECODES",
          "object": "VSTESTCD"
        },
        "mandatoryVariable": true,
        "mandatoryValue": false
      },
      {
        "name": "VSORRES",
        "dataElementConceptId": "C70856",
        "isNonStandard": false,
        "role": "Qualifier",
        "dataType": "integer",
        "length": 3,
        "relationship": {
          "subject": "VSORRES",
          "linkingPhrase": "is the result of the test in",
          "predicateTerm": "IS_RESULT_OF",
          "object": "VSTESTCD"
        },
        "mandatoryVariable": true,
        "mandatoryValue": false,
        "originType": "Collected",
        "originSource": "Investigator",
        "vlmTarget": true
      },
      {
        "name": "VSORRESU",
        "dataElementConceptId": "C49669",
        "isNonStandard": false,
        "codelist": {
          "conceptId": "C66770",
          "submissionValue": "VSRESU",
          "href": "https://evsexplore.semantics.cancer.gov/evsexplore/concept/ncit/C66770"
        },
        "assignedTerm": {
          "conceptId": "C49670",
          "value": "mmHg"
        },
        "role": "Qualifier",
        "relationship": {
          "subject": "VSORRESU",
          "linkingPhrase": "is the unit for the value in",
          "predicateTerm": "IS_UNIT_FOR",
          "object": "VSORRES"
        },
        "mandatoryVariable": true,
        "mandatoryValue": false,
        "vlmTarget": true
      },
      {
        "name": "VSSTRESC",
        "dataElementConceptId": "C70856",
        "isNonStandard": false,
        "role": "Qualifier",
        "dataType": "integer",
        "length": 3,
        "relationship": {
          "subject": "VSSTRESC",
          "linkingPhrase": "is the result of the test in",
          "predicateTerm": "IS_RESULT_OF",
          "object": "VSTESTCD"
        },
        "mandatoryVariable": false,
        "mandatoryValue": false,
        "vlmTarget": true
      },
      {
        "name": "VSSTRESN",
        "dataElementConceptId": "C70856",
        "isNonStandard": false,
        "role": "Qualifier",
        "dataType": "integer",
        "length": 3,
        "relationship": {
          "subject": "VSSTRESN",
          "linkingPhrase": "is the result of the test in",
          "predicateTerm": "IS_RESULT_OF",
          "object": "VSTESTCD"
        },
        "mandatoryVariable": false,
        "mandatoryValue": false,
        "vlmTarget": true
      },
      {
        "name": "VSSTRESU",
        "dataElementConceptId": "C49669",
        "isNonStandard": false,
        "codelist": {
          "conceptId": "C66770",
          "submissionValue": "VSRESU",
          "href": "https://evsexplore.semantics.cancer.gov/evsexplore/concept/ncit/C66770"
        },
        "assignedTerm": {
          "conceptId": "C49670",
          "value": "mmHg"
        },
        "role": "Qualifier",
        "relationship": {
          "subject": "VSSTRESU",
          "linkingPhrase": "is the unit for the value in",
          "predicateTerm": "IS_UNIT_FOR",
          "object": "VSSTRESN"
        },
        "mandatoryVariable": false,
        "mandatoryValue": false,
        "vlmTarget": true
      },
      {
        "name": "VSPOS",
        "dataElementConceptId": "C62164",
        "isNonStandard": false,
        "codelist": {
          "conceptId": "C71148",
          "submissionValue": "POSITION",
          "href": "https://evsexplore.semantics.cancer.gov/evsexplore/concept/ncit/C71148"
        },
        "valueList": [
          "PRONE",
          "SEMI-RECUMBENT",
          "SITTING",
          "STANDING",
          "SUPINE"
        ],
        "role": "Qualifier",
        "relationship": {
          "subject": "VSPOS",
          "linkingPhrase": "is the subject position during performance of the test in",
          "predicateTerm": "IS_SUBJECT_STATE_FOR",
          "object": "VSTESTCD"
        },
        "mandatoryVariable": false,
        "mandatoryValue": false,
        "comparator": "IN"
      },
      {
        "name": "VSLOC",
        "dataElementConceptId": "C13717",
        "isNonStandard": false,
        "codelist": {
          "conceptId": "C74456",
          "submissionValue": "LOC",
          "href": "https://evsexplore.semantics.cancer.gov/evsexplore/concept/ncit/C74456"
        },
        "valueList": [
          "BRACHIAL ARTERY",
          "CAROTID ARTERY",
          "DORSALIS PEDIS ARTERY",
          "FEMORAL ARTERY",
          "FINGER",
          "PERIPHERAL ARTERY",
          "RADIAL ARTERY"
        ],
        "role": "Qualifier",
        "relationship": {
          "subject": "VSLOC",
          "linkingPhrase": "specifies the anatomical location of the performance of the test in",
          "predicateTerm": "SPECIFIES",
          "object": "VSTESTCD"
        },
        "mandatoryVariable": false,
        "mandatoryValue": false,
        "comparator": "IN"
      },
      {
        "name": "VSLAT",
        "dataElementConceptId": "C25185",
        "isNonStandard": false,
        "codelist": {
          "conceptId": "C99073",
          "submissionValue": "LAT",
          "href": "https://evsexplore.semantics.cancer.gov/evsexplore/concept/ncit/C99073"
        },
        "subsetCodelist": "VSLAT_BP",
        "valueList": [
          "LEFT",
          "RIGHT"
        ],
        "role": "Qualifier",
        "relationship": {
          "subject": "VSLAT",
          "linkingPhrase": "further specifies the anatomical location in",
          "predicateTerm": "SPECIFIES",
          "object": "VSLOC"
        },
        "mandatoryVariable": false,
        "mandatoryValue": false,
        "comparator": "IN"
      },
      {
        "name": "VSDTC",
        "dataElementConceptId": "C82515",
        "isNonStandard": false,
        "role": "Timing",
        "relationship": {
          "subject": "VSDTC",
          "linkingPhrase": "is the date of occurrence for",
          "predicateTerm": "IS_TIMING_FOR",
          "object": "VSTESTCD"
        },
        "mandatoryVariable": true,
        "mandatoryValue": false
      }
    ]
  },
  {
    "_links": {
      "parentBiomedicalConcept": {
        "href": "/mdr/bc/biomedicalconcepts/C164634",
        "title": "Body Height",
        "type": "Biomedical Concept"
      },
      "parentPackage": {
        "href": "/mdr/specializations/sdtm/packages/2024-12-16/datasetspecializations",
        "title": "SDTM Dataset Specialization Package Effective 2024-12-16",
        "type": "SDTM Dataset Specialization Package"
      },
      "self": {
        "href": "/mdr/specializations/sdtm/datasetspecializations/HEIGHT",
        "title": "Height",
        "type": "SDTM Dataset Specialization"
      }
    },
    "datasetSpecializationId": "HEIGHT",
    "domain": "VS",
    "shortName": "Height",
    "source": "VS.VSTESTCD",
    "sdtmigStartVersion": "3-2",
    "sdtmigEndVersion": "",
    "variables": [
      {
        "name": "VSTESTCD",
        "isNonStandard": false,
        "codelist": {
          "conceptId": "C66741",
          "submissionValue": "VSTESTCD",
          "href": "https://evsexplore.semantics.cancer.gov/evsexplore/concept/ncit/C66741"
        },
        "assignedTerm": {
          "conceptId": "C25347",
          "value": "HEIGHT"
        },
        "role": "Topic",
        "relationship": {
          "subject": "VSTESTCD",
          "linkingPhrase": "is the code for the value in",
          "predicateTerm": "IS_DECODED_BY",
          "object": "VSTEST"
        },
        "mandatoryVariable": true,
        "mandatoryValue": false,
        "comparator": "EQ"
      },
      {
        "name": "VSTEST",
        "isNonStandard": false,
        "codelist": {
          "conceptId": "C67153",
          "submissionValue": "VSTEST",
          "href": "https://evsexplore.semantics.cancer.gov/evsexplore/concept/ncit/C67153"
        },
        "assignedTerm": {
          "conceptId": "C25347",
          "value": "Height"
        },
        "role": "Qualifier",
        "relationship": {
          "subject": "VSTEST",
          "linkingPhrase": "decodes the value in",
          "predicateTerm": "DECODES",
          "object": "VSTESTCD"
        },
        "mandatoryVariable": true,
        "mandatoryValue": false
      },
      {
        "name": "VSORRES",
        "dataElementConceptId": "C70856",
        "isNonStandard": false,
        "role": "Qualifier",
        "dataType": "float",
        "length": 8,
        "format": "8.3",
        "significantDigits": 3,
        "relationship": {
          "subject": "VSORRES",
          "linkingPhrase": "is the result of the test in",
          "predicateTerm": "IS_RESULT_OF",
          "object": "VSTESTCD"
        },
        "mandatoryVariable": true,
        "mandatoryValue": false,
        "originType": "Collected",
        "originSource": "Investigator",
        "vlmTarget": true
      },
      {
        "name": "VSORRESU",
        "dataElementConceptId": "C168688",
        "isNonStandard": false,
        "codelist": {
          "conceptId": "C66770",
          "submissionValue": "VSRESU",
          "href": "https://evsexplore.semantics.cancer.gov/evsexplore/concept/ncit/C66770"
        },
        "subsetCodelist": "VSRESU_HT",
        "valueList": [
          "cm",
          "in",
          "m"
        ],
        "role": "Qualifier",
        "relationship": {
          "subject": "VSORRESU",
          "linkingPhrase": "is the unit for the value in",
          "predicateTerm": "IS_UNIT_FOR",
          "object": "VSORRES"
        },
        "mandatoryVariable": true,
        "mandatoryValue": false,
        "vlmTarget": true
      },
      {
        "name": "VSSTRESC",
        "dataElementConceptId": "C70856",
        "isNonStandard": false,
        "role": "Qualifier",
        "dataType": "float",
        "length": 8,
        "format": "8.3",
        "significantDigits": 3,
        "relationship": {
          "subject": "VSSTRESC",
          "linkingPhrase": "is the result of the test in",
          "predicateTerm": "IS_RESULT_OF",
          "object": "VSTESTCD"
        },
        "mandatoryVariable": false,
        "mandatoryValue": false,
        "vlmTarget": true
      },
      {
        "name": "VSSTRESN",
        "dataElementConceptId": "C70856",
        "isNonStandard": false,
        "role": "Qualifier",
        "dataType": "float",
        "length": 8,
        "format": "8.3",
        "significantDigits": 3,
        "relationship": {
          "subject": "VSSTRESN",
          "linkingPhrase": "is the result of the test in",
          "predicateTerm": "IS_RESULT_OF",
          "object": "VSTESTCD"
        },
        "mandatoryVariable": false,
        "mandatoryValue": false,
        "vlmTarget": true
      },
      {
        "name": "VSSTRESU",
        "dataElementConceptId": "C168688",
        "isNonStandard": false,
        "codelist": {
          "conceptId": "C66770",
          "submissionValue": "VSRESU",
          "href": "https://evsexplore.semantics.cancer.gov/evsexplore/concept/ncit/C66770"
        },
        "role": "Qualifier",
        "relationship": {
          "subject": "VSSTRESU",
          "linkingPhrase": "is the unit for the value in",
          "predicateTerm": "IS_UNIT_FOR",
          "object": "VSSTRESN"
        },
        "mandatoryVariable": false,
        "mandatoryValue": false,
        "vlmTarget": true
      },
      {
        "name": "VSDTC",
        "dataElementConceptId": "C82515",
        "isNonStandard": false,
        "role": "Timing",
        "relationship": {
          "subject": "VSDTC",
          "linkingPhrase": "is the date of occurrence for",
          "predicateTerm": "IS_TIMING_FOR",
          "object": "VSTESTCD"
        },
        "mandatoryVariable": true,
        "mandatoryValue": false
      }
    ]
  },
  {
    "_links": {
      "parentBiomedicalConcept": {
        "href": "/mdr/bc/biomedicalconcepts/C49680",
        "title": "Body Frame Size",
        "type": "Biomedical Concept"
      },
      "parentPackage": {
        "href": "/mdr/specializations/sdtm/packages/2025-04-01/datasetspecializations",
        "title": "SDTM Dataset Specialization Package Effective 2025-04-01",
        "type": "SDTM Dataset Specialization Package"
      },
      "self": {
        "href": "/mdr/specializations/sdtm/datasetspecializations/FRMSIZE",
        "title": "Frame Size",
        "type": "SDTM Dataset Specialization"
      }
    },
    "datasetSpecializationId": "FRMSIZE",
    "domain": "VS",
    "shortName": "Frame Size",
    "source": "VS.VSTESTCD",
    "sdtmigStartVersion": "3-2",
    "sdtmigEndVersion": "",
    "variables": [
      {
        "name": "VSTESTCD",
        "isNonStandard": false,
        "codelist": {
          "conceptId": "C66741",
          "submissionValue": "VSTESTCD",
          "href": "https://evsexplore.semantics.cancer.gov/evsexplore/concept/ncit/C66741"
        },
        "assignedTerm": {
          "conceptId": "C49680",
          "value": "FRMSIZE"
        },
        "role": "Topic",
        "relationship": {
          "subject": "VSTESTCD",
          "linkingPhrase": "is the code for the value in",
          "predicateTerm": "IS_DECODED_BY",
          "object": "VSTEST"
        },
        "mandatoryVariable": true,
        "mandatoryValue": false,
        "comparator": "EQ"
      },
      {
        "name": "VSTEST",
        "isNonStandard": false,
        "codelist": {
          "conceptId": "C67153",
          "submissionValue": "VSTEST",
          "href": "https://evsexplore.semantics.cancer.gov/evsexplore/concept/ncit/C67153"
        },
        "assignedTerm": {
          "conceptId": "C49680",
          "value": "Body Frame Size"
        },
        "role": "Qualifier",
        "relationship": {
          "subject": "VSTEST",
          "linkingPhrase": "decodes the value in",
          "predicateTerm": "DECODES",
          "object": "VSTESTCD"
        },
        "mandatoryVariable": true,
        "mandatoryValue": false
      },
      {
        "name": "VSORRES",
        "dataElementConceptId": "C70856",
        "isNonStandard": false,
        "codelist": {
          "conceptId": "C66733",
          "submissionValue": "SIZE",
          "href": "https://evsexplore.semantics.cancer.gov/evsexplore/concept/ncit/C66733"
        },
        "valueList": [
          "LARGE",
          "MEDIUM",
          "SMALL"
        ],
        "role": "Qualifier",
        "dataType": "text",
        "length": 20,
        "relationship": {
          "subject": "VSORRES",
          "linkingPhrase": "is the result of the test in",
          "predicateTerm": "IS_RESULT_OF",
          "object": "VSTESTCD"
        },
        "mandatoryVariable": true,
        "mandatoryValue": false,
        "originType": "Collected",
        "originSource": "Investigator",
        "vlmTarget": true
      },
      {
        "name": "VSSTRESC",
        "dataElementConceptId": "C70856",
        "isNonStandard": false,
        "codelist": {
          "conceptId": "C66733",
          "submissionValue": "SIZE",
          "href": "https://evsexplore.semantics.cancer.gov/evsexplore/concept/ncit/C66733"
        },
        "role": "Qualifier",
        "dataType": "text",
        "length": 20,
        "relationship": {
          "subject": "VSSTRESC",
          "linkingPhrase": "is the result of the test in",
          "predicateTerm": "IS_RESULT_OF",
          "object": "VSTESTCD"
        },
        "mandatoryVariable": false,
        "mandatoryValue": false,
        "vlmTarget": true
      },
      {
        "name": "VSDTC",
        "dataElementConceptId": "C82515",
        "isNonStandard": false,
        "role": "Timing",
        "relationship": {
          "subject": "VSDTC",
          "linkingPhrase": "is the date of occurrence for",
          "predicateTerm": "IS_TIMING_FOR",
          "object": "VSTESTCD"
        },
        "mandatoryVariable": true,
        "mandatoryValue": false
      }
    ]
  },
  {
    "_links": {
      "parentBiomedicalConcept": {
        "href": "/mdr/bc/biomedicalconcepts/C49676",
        "title": "Pulse Rate",
        "type": "Biomedical Concept"
      },
      "parentPackage": {
        "href": "/mdr/specializations/sdtm/packages/2025-04-01/datasetspecializations",
        "title": "SDTM Dataset Specialization Package Effective 2025-04-01",
        "type": "SDTM Dataset Specialization Package"
      },
      "self": {
        "href": "/mdr/specializations/sdtm/datasetspecializations/PULSE",
        "title": "Pulse",
        "type": "SDTM Dataset Specialization"
      }
    },
    "datasetSpecializationId": "PULSE",
    "domain": "VS",
    "shortName": "Pulse",
    "source": "VS.VSTESTCD",
    "sdtmigStartVersion": "3-2",
    "sdtmigEndVersion": "",
    "variables": [
      {
